"Time (s)","Linear Acceleration x (m/s^2)","Linear Acceleration y (m/s^2)","Linear Acceleration z (m/s^2)","Absolute acceleration (m/s^2)"
5.003053600E-2,1.054070890E-4,1.381933689E-4,-3.828048706E-3,3.831992296E-3
5.501491100E-2,-3.578193486E-3,1.023992896E-2,6.796836853E-3,1.280064861E-2
5.999933800E-2,-9.983032942E-4,-3.617197275E-3,9.930610657E-3,1.061591982E-2
6.498371300E-2,-9.330518544E-3,-9.529739618E-3,-1.856136322E-2,2.285604336E-2
7.019402600E-2,-8.223000914E-3,-8.504092693E-3,2.664566040E-3,1.212589167E-2
7.517840100E-2,9.915472940E-3,2.034148574E-2,1.533317566E-2,2.733493957E-2
8.016282800E-2,-1.264796034E-2,5.440950394E-3,-5.660057068E-3,1.488660767E-2
8.514720300E-2,-4.891529679E-3,1.588678360E-2,-2.056121826E-2,2.644013336E-2
9.013163000E-2,4.298228770E-3,7.950782776E-3,-1.455974579E-2,1.713697508E-2
9.511600500E-2,6.137039512E-3,-8.220434189E-3,-2.686786652E-2,2.875971216E-2
1.003314220E-1,-3.193259239E-3,-7.757931948E-3,-1.166343689E-2,1.436726045E-2
1.053157970E-1,-6.793551147E-4,-7.354944944E-3,-4.199028015E-3,8.496385983E-3
1.103002240E-1,-9.538516402E-3,1.108098030E-2,-8.461952209E-3,1.689307713E-2
1.152845990E-1,1.584869623E-2,-7.667273283E-3,-2.382946014E-2,2.962788252E-2
1.202690260E-1,1.417964697E-3,-4.396140575E-4,2.389907837E-3,2.813457636E-3
1.252534010E-1,-3.182955086E-3,1.774877310E-3,-1.138687134E-2,1.195584507E-2
1.304762130E-1,-2.120836079E-2,3.884434700E-3,-1.769065857E-2,2.788983329E-2
1.354605880E-1,5.027845502E-3,1.387596130E-3,-2.374553680E-2,2.431162626E-2
1.404450150E-1,1.404597983E-2,-7.872074842E-3,1.993179321E-4,1.610275875E-2
1.454293900E-1,-1.411432773E-2,-7.678061724E-3,-2.108573914E-3,1.620533749E-2
1.504138170E-1,9.417284280E-3,8.643001318E-3,1.407051086E-2,1.900962890E-2
1.553981920E-1,1.598395035E-2,1.278352737E-2,8.919715881E-3,2.232636496E-2
1.606025150E-1,1.305248961E-2,-3.820300102E-3,1.668930054E-3,1.370209858E-2
1.655868900E-1,7.985275239E-3,-3.717660904E-3,-2.380084991E-2,2.537845700E-2
1.705713170E-1,-6.098359823E-3,1.102954149E-3,-6.788253784E-3,9.191675028E-3
1.755556920E-1,3.438156098E-3,5.763977766E-3,1.659584045E-2,1.790157193E-2
1.805401200E-1,5.670219660E-3,-1.532074809E-2,1.374149323E-2,2.134725624E-2
1.855244950E-1,2.160810865E-2,1.317709684E-3,-7.575988770E-3,2.293561258E-2
1.907634530E-1,-4.631817341E-3,5.940914154E-3,1.944541931E-3,7.780066593E-3
1.957478280E-1,-2.151589841E-3,-1.141965389E-3,1.889228821E-3,3.082630262E-3
2.007322550E-1,5.011137575E-3,-5.696415901E-3,1.580047607E-2,1.752756966E-2
2.057166300E-1,1.886614785E-2,-5.623072386E-3,-1.491737366E-2,2.469976750E-2
2.107010570E-1,-1.896307990E-2,3.867834806E-3,-1.917552948E-2,2.724443936E-2
2.156854320E-1,-9.010910988E-3,-7.930815220E-3,-2.333641052E-2,2.624275906E-2
2.208720470E-1,-1.109261438E-2,-1.009732485E-2,-8.734703064E-3,1.735791176E-2
2.258564220E-1,-1.079183817E-2,-7.594823837E-3,-3.849029541E-3,1.374627763E-2
2.308408490E-1,2.211234905E-2,-2.770304680E-3,7.929801941E-3,2.365401292E-2
2.358252240E-1,-4.270579666E-3,6.615251303E-3,1.709270477E-2,1.881913805E-2
2.408096510E-1,5.206964910E-3,-6.430149078E-4,2.605247498E-2,2.657550384E-2
2.457940260E-1,-4.202704877E-3,-1.481112838E-2,-9.658813477E-3,1.817484332E-2
2.509882450E-1,-6.322544068E-3,-5.202144384E-3,-9.446144104E-3,1.250066031E-2
2.559726200E-1,-6.212461740E-3,-2.729654312E-3,4.819869995E-3,8.323271010E-3
2.609570470E-1,5.668897182E-3,-2.151414752E-2,-7.007598877E-3,2.332598081E-2
2.659414220E-1,-8.446756750E-3,-9.268522263E-5,1.707077026E-4,8.448989956E-3
2.709258490E-1,-5.853205919E-3,9.311616421E-3,-2.178192139E-3,1.121208013E-2
2.759102240E-1,-9.168684483E-4,-1.203772426E-2,-6.830215454E-3,1.387080734E-2
2.811225670E-1,-1.502496377E-2,-1.173070073E-2,9.745597839E-3,2.140877281E-2
2.861069420E-1,1.118089072E-2,1.205649972E-2,2.511024475E-3,1.663360294E-2
2.910913700E-1,2.049687132E-2,1.189607382E-2,-1.163482666E-2,2.640089956E-2
2.960757450E-1,3.732532263E-3,-1.147389412E-4,7.389068604E-3,8.279087930E-3
3.010601720E-1,1.384466887E-3,-4.953384399E-3,2.841854095E-2,2.888020491E-2
3.060445470E-1,5.983624607E-3,2.158582211E-3,9.088516235E-3,1.109343806E-2
3.112540780E-1,1.055531390E-2,-2.157688141E-4,-4.854202271E-4,1.056867260E-2
3.162384530E-1,-8.338786662E-3,9.221434593E-3,1.877784729E-3,1.257363489E-2
3.212228800E-1,-1.058134437E-2,2.080473304E-2,-5.102157593E-4,2.334656475E-2
3.262072550E-1,-1.504278928E-2,-7.770657539E-4,-7.568359375E-3,1.685732494E-2
3.311916820E-1,-1.477698237E-2,-1.488500834E-2,-2.731323242E-3,2.115142567E-2
3.361760570E-1,-7.498558611E-3,-1.216918230E-2,2.559947968E-2,2.931980114E-2
3.413874630E-1,4.484601319E-3,-1.420935988E-2,-3.093719482E-3,1.521803724E-2
3.463718380E-1,-1.799389720E-4,-1.166379452E-2,-7.761955261E-3,1.401158200E-2
3.513562650E-1,-1.549683511E-4,4.991233349E-3,-1.471996307E-2,1.554392931E-2
3.563406400E-1,-2.545353025E-3,2.573370934E-3,2.017021179E-3,4.143601624E-3
3.613250670E-1,-1.202816144E-2,1.917481422E-4,2.322483063E-2,2.615542377E-2
3.663094420E-1,-1.423911005E-2,4.822999239E-3,-1.016330719E-2,1.814680109E-2
3.715224110E-1,1.662390307E-2,1.190662384E-2,-1.001453400E-2,2.276867883E-2
3.765067860E-1,9.219225496E-3,4.950165749E-5,1.610469818E-2,1.855688208E-2
3.814912130E-1,2.343461104E-2,-9.381741285E-3,-1.246166229E-2,2.815121829E-2
3.864755880E-1,-1.456315815E-2,-1.401069760E-2,-9.926795959E-3,2.251502833E-2
3.914600150E-1,1.159678213E-2,7.359027863E-3,1.855850220E-2,2.308806295E-2
3.964443900E-1,-3.004856408E-4,7.275670767E-3,2.067184448E-2,2.191690742E-2
4.016457450E-1,-2.529647201E-3,4.885762930E-3,3.853797913E-3,6.717257828E-3
4.066301200E-1,2.253852785E-3,-9.397447109E-3,6.166458130E-3,1.146372847E-2
4.116145470E-1,-7.212210447E-3,-2.118352056E-2,-5.739212036E-3,2.310186307E-2
4.165989220E-1,4.827711731E-3,7.533431053E-3,-1.748657227E-2,1.964280004E-2
4.215833490E-1,1.188289933E-2,-2.057462931E-3,1.111698151E-2,1.640194281E-2
4.265677240E-1,1.885180175E-2,-6.746321917E-3,-3.214836121E-3,2.027901526E-2
4.317839220E-1,-1.684808359E-2,-1.379725337E-2,1.338577271E-2,2.556171027E-2
4.367682970E-1,6.989609450E-3,-6.462156773E-3,-1.517105103E-2,1.791018983E-2
4.417527240E-1,9.398661554E-3,6.803274155E-4,-5.522727966E-3,1.092237193E-2
4.467370990E-1,2.258028835E-3,1.967608929E-2,-7.209777832E-4,1.981834990E-2
4.517215260E-1,9.354203939E-3,1.235920191E-2,8.758544922E-3,1.780345787E-2
4.567059010E-1,2.264659852E-3,9.658873081E-3,-8.192062378E-4,9.954577455E-3
4.619177760E-1,-7.206782699E-3,-9.594410658E-3,-4.106998444E-2,4.278707812E-2
4.669021510E-1,2.368652634E-2,9.425520897E-3,4.392623901E-3,2.586865128E-2
4.718865780E-1,2.349563874E-2,2.359870076E-2,-9.865760803E-3,3.473149801E-2
4.768709530E-1,1.146092452E-2,-1.691773534E-2,-7.386207581E-3,2.172829083E-2
4.818553800E-1,-7.493183017E-3,-2.551883459E-3,-1.204490662E-2,1.441317718E-2
4.868397550E-1,9.349726140E-3,-7.246494293E-3,-2.435684204E-3,1.207731824E-2
4.920464740E-1,1.174979098E-2,7.120728493E-3,1.418113708E-2,1.974505030E-2
4.970308490E-1,-9.737528861E-3,2.373248339E-3,1.640224457E-2,1.922200309E-2
5.020152760E-1,1.176833548E-2,-1.427838206E-2,9.118080139E-3,2.062777980E-2
5.069996510E-1,4.554919899E-3,4.748314619E-3,6.649971008E-3,9.354993395E-3
5.119840780E-1,-2.529118210E-3,-7.760524750E-5,8.951187134E-3,9.301946710E-3
5.169684530E-1,-7.223103195E-3,-1.897737384E-2,-5.365371704E-3,2.100240822E-2
5.221844950E-1,-1.661514491E-2,-1.165416837E-2,1.128959656E-2,2.322364466E-2
5.271764740E-1,7.340416312E-3,4.976391792E-3,-1.016902924E-2,1.349278854E-2
5.321685050E-1,2.543527633E-3,-2.222985029E-3,-2.954483032E-3,4.487779545E-3
5.371604840E-1,-9.320624173E-3,-1.167261600E-2,2.316761017E-2,2.756559740E-2
5.421525150E-1,2.755176276E-3,2.742439508E-3,-3.149986267E-3,5.003437244E-3
5.471445470E-1,1.229103468E-2,-6.757140160E-3,1.626014709E-3,1.411992920E-2
5.523135050E-1,-9.155470878E-3,-2.091214061E-2,-3.133773804E-3,2.304258688E-2
5.573054840E-1,-1.606216654E-2,3.030568361E-3,-7.848739624E-3,1.813229859E-2
5.622975150E-1,-8.718710393E-3,-2.308556437E-2,2.307605743E-2,3.378555342E-2
5.672894950E-1,3.197841346E-3,-1.341351867E-2,-3.245353699E-3,1.416619190E-2
5.722815260E-1,7.986553013E-3,-1.090008020E-2,-8.411407471E-4,1.353899166E-2
5.772735570E-1,-3.882139921E-3,1.063081622E-2,-7.952690125E-3,1.383222846E-2
5.824749630E-1,-2.038588375E-2,2.242150903E-2,-1.500225067E-2,3.381384108E-2
5.874669950E-1,-1.316548139E-2,2.218654752E-2,-1.961803436E-2,3.241049310E-2
5.924590260E-1,-1.550571993E-2,-1.736134291E-3,3.041553497E-2,3.418400621E-2
5.974510050E-1,-1.292569563E-2,-4.078298807E-3,3.014945984E-2,3.305595343E-2
6.024430360E-1,-1.274074614E-2,8.265376091E-4,3.769874573E-3,1.331246525E-2
6.074350670E-1,1.831468195E-2,-8.611649275E-3,-3.385543823E-3,2.051950255E-2
6.125876200E-1,2.546792291E-2,5.675494671E-3,-3.356933594E-3,2.630770496E-2
6.175795990E-1,8.699774742E-3,5.643814802E-3,-1.282787323E-2,1.649524349E-2
6.225716300E-1,1.471269876E-3,-6.264030933E-3,1.531600952E-3,6.614266404E-3
6.275636090E-1,6.129100919E-3,-1.554247737E-2,1.523971558E-3,1.677667935E-2
6.325556400E-1,1.549616829E-2,-1.539605856E-2,1.101398468E-2,2.446380406E-2
6.375476720E-1,-1.344226301E-3,6.025373936E-3,6.168365479E-3,8.727015990E-3
6.427128800E-1,-3.742001951E-3,-3.456056118E-3,-3.383636475E-3,6.115218580E-3
6.477048590E-1,5.918622017E-3,-1.534041762E-2,-3.355026245E-3,1.678137958E-2
6.526968900E-1,1.088935882E-3,-5.745679140E-3,-9.527206421E-4,5.925055844E-3
6.576888700E-1,-1.552498713E-2,-1.043269038E-2,-1.994800568E-2,2.734573430E-2
6.626809010E-1,-3.343489021E-3,1.110267639E-2,-1.027584076E-2,1.549326451E-2
6.676729320E-1,-5.671795458E-3,-8.506178856E-4,-7.813453674E-3,9.692413158E-3
6.728415780E-1,-1.024695113E-2,2.287557721E-2,-1.487636566E-2,2.914786949E-2
6.778335570E-1,1.604343951E-2,-1.071122289E-2,-5.035400391E-4,1.929704121E-2
6.828255880E-1,4.106141627E-3,-1.065722108E-2,1.137828827E-2,1.612148269E-2
6.878175670E-1,-7.683020085E-3,1.326203346E-3,-2.672481537E-2,2.783888233E-2
6.928095990E-1,1.156276464E-2,2.038756013E-2,2.338695526E-2,3.311041846E-2
6.978016300E-1,-2.839900553E-4,-3.521531820E-3,-2.938270569E-3,4.595135542E-3
7.029765780E-1,-2.079606056E-4,1.330018044E-3,-5.286216736E-3,5.454931987E-3
7.079685570E-1,1.401619054E-2,8.462190628E-3,1.376247406E-2,2.138850064E-2
7.129605880E-1,1.993924379E-3,1.305559278E-2,-6.084442139E-4,1.322098489E-2
7.179525670E-1,1.619973034E-2,5.888551474E-3,4.149436951E-3,1.772918860E-2
7.229445990E-1,2.579906024E-2,1.001000404E-3,1.737594604E-3,2.587687667E-2
7.279366300E-1,9.084101766E-3,8.135199547E-3,1.835250854E-2,2.203444908E-2
7.331070470E-1,-7.595594972E-3,1.521080732E-2,-1.505661011E-2,2.271042118E-2
7.380990260E-1,1.624699309E-2,-1.113405824E-2,-1.255798340E-2,2.335883097E-2
7.430910570E-1,4.203110933E-3,3.176927567E-3,-2.952575684E-3,6.039595471E-3
7.480830360E-1,-9.962391108E-3,1.736888289E-2,-1.718139648E-2,2.638423231E-2
7.530750670E-1,1.394857652E-2,-1.369285583E-2,6.716728210E-3,2.066812826E-2
7.580670990E-1,-5.151070654E-3,-1.578256488E-2,-5.212783813E-3,1.740103440E-2
7.632472550E-1,4.362039268E-3,1.303362846E-2,-1.704216003E-2,2.189379081E-2
7.682392340E-1,-3.558397293E-4,-1.799154282E-2,-7.398605347E-3,1.945665942E-2
7.732312650E-1,-1.685737818E-2,1.076012850E-3,-1.208972931E-2,2.077235080E-2
7.782232450E-1,1.424219273E-2,-8.419156075E-3,-4.861831665E-3,1.724411928E-2
7.832152760E-1,2.266705036E-3,-6.008476019E-3,1.655769348E-2,1.775941861E-2
7.882073070E-1,-2.861025929E-2,8.311003447E-3,1.167011261E-2,3.199705054E-2
7.933744420E-1,9.770072997E-3,-5.994945765E-3,6.822586060E-3,1.333946707E-2
7.983664220E-1,1.213828102E-2,-8.407473564E-3,-3.633499146E-4,1.477008805E-2
8.033584530E-1,2.335235476E-4,-2.500143647E-2,-2.737045288E-3,2.515189408E-2
8.083504320E-1,2.163229510E-2,-9.693503380E-4,-1.221370697E-2,2.486102310E-2
8.133424630E-1,9.595219046E-3,8.454144001E-3,-2.374649048E-4,1.279051089E-2
8.183344950E-1,2.611322142E-2,-1.303115487E-2,9.265899658E-3,3.061973590E-2
8.235120990E-1,1.641669497E-2,3.616005182E-3,4.434585571E-3,1.738530749E-2
8.285040780E-1,9.172648191E-3,-1.251667738E-3,6.770133972E-3,1.146903923E-2
8.334961090E-1,1.159449667E-2,-6.027102470E-3,1.146507263E-2,1.738407914E-2
8.384880880E-1,-5.058314651E-3,8.293002844E-3,-1.238536835E-2,1.574032377E-2
8.434801200E-1,1.633287221E-2,-6.012648344E-3,-5.156517029E-3,1.815225393E-2
8.484721510E-1,8.986145258E-3,-1.544779539E-2,1.864242554E-2,2.582489533E-2
8.536326200E-1,-1.466066018E-2,-1.048833132E-3,1.848793030E-2,2.361860653E-2
8.586245990E-1,4.536870867E-3,6.051748991E-3,-5.422592163E-3,9.306522921E-3
8.636166300E-1,9.217821062E-3,1.552036405E-2,-1.487922668E-2,2.339318944E-2
8.686086090E-1,-4.451461136E-4,1.070857048E-2,-1.475334167E-2,1.823547991E-2
8.736006400E-1,-5.224827677E-3,1.321855187E-2,9.132385254E-3,1.689465591E-2
8.785926720E-1,6.714250892E-3,3.675073385E-3,4.306793213E-3,8.782698743E-3
8.837717860E-1,6.790358573E-3,-1.143455505E-3,-4.816055298E-4,6.902782333E-3
8.887637650E-1,-1.446709409E-2,-1.299542189E-2,4.274368286E-3,1.991100263E-2
8.937557970E-1,2.406489104E-3,1.088491082E-2,-2.887725830E-3,1.151570379E-2
8.987477760E-1,1.438686810E-2,8.383870125E-3,6.638526917E-3,1.792599486E-2
9.037398070E-1,4.734024405E-3,1.778113842E-2,1.370811462E-2,2.294541952E-2
9.087318380E-1,-2.384418994E-2,-3.729969263E-3,4.092216492E-3,2.447864989E-2
9.139007450E-1,-1.417366788E-2,1.122742891E-3,1.118659973E-2,1.809125276E-2
9.188927240E-1,7.293481380E-3,1.538324356E-2,1.590728760E-3,1.709881490E-2
9.238847550E-1,9.626097977E-3,-1.201480627E-3,6.333351135E-3,1.158519118E-2
9.288767340E-1,7.241405547E-3,-1.780334115E-2,-1.509857178E-2,2.444102658E-2
9.338687650E-1,7.306836545E-3,6.116837263E-3,1.115989685E-2,1.467476937E-2
9.388607970E-1,7.268343121E-3,1.088505983E-2,-5.560874939E-3,1.422099397E-2
9.440369420E-1,2.385819331E-2,2.485048771E-2,6.358146667E-3,3.503121688E-2
9.490289220E-1,9.373836219E-3,-1.522302628E-3,-1.032447815E-2,1.402786726E-2
9.540209530E-1,1.649491116E-2,-3.816813231E-3,-7.352828979E-4,1.694670465E-2
9.590129320E-1,4.604026675E-3,-6.195545197E-3,2.065086365E-2,2.204631514E-2
9.640049630E-1,-1.158639789E-4,-1.800447702E-2,-1.277732849E-2,2.207792429E-2
9.689969950E-1,7.032599300E-3,-3.636240959E-3,1.581192017E-3,8.073405070E-3
9.741678800E-1,-7.274001837E-5,2.248793840E-2,1.344490051E-2,2.620072546E-2
9.791598590E-1,7.127054036E-3,3.261208534E-3,-3.417873383E-2,3.506588408E-2
9.841518900E-1,4.608124495E-3,-1.823228598E-2,1.736640930E-3,1.888562906E-2
9.891438700E-1,2.266760916E-3,-6.237655878E-3,1.359844208E-2,1.513156247E-2
9.941359010E-1,-2.143644169E-2,-1.091986895E-2,1.586151123E-2,2.881583087E-2
9.991279320E-1,2.865088172E-2,-2.031457424E-2,1.335430145E-2,3.757515559E-2
1.004308297E0,3.086454608E-2,1.545116305E-2,6.115913391E-3,3.505371650E-2
1.009300276E0,1.151752472E-2,-1.185834408E-3,-8.185386658E-3,1.417956747E-2
1.014292307E0,1.123718172E-2,-1.541274786E-2,-1.286888123E-2,2.300945792E-2
1.019284286E0,-5.514517426E-3,-1.062017679E-2,1.488685608E-3,1.205878279E-2
1.024276317E0,-5.446165800E-3,-5.867540836E-3,-1.515483856E-2,1.713936665E-2
1.029268297E0,1.798398793E-3,-8.125841618E-3,-7.899284363E-3,1.147441648E-2
1.034435640E0,6.667815149E-3,-3.451079130E-3,-1.021289825E-2,1.267568526E-2
1.039433609E0,6.633158773E-3,1.345485449E-3,4.126548767E-3,7.927012749E-3
1.044431682E0,-2.796821296E-3,-1.057896018E-2,-2.203941345E-2,2.460634782E-2
1.049429703E0,9.179860353E-3,1.080176234E-2,-2.853393555E-3,1.445993640E-2
1.054427724E0,1.857618988E-2,8.249163628E-3,1.918792725E-3,2.041580996E-2
1.059425745E0,3.724111244E-2,8.041620255E-3,1.377582550E-2,4.051347283E-2
1.064588505E0,2.496620826E-2,3.347933292E-3,2.079105377E-2,3.266172269E-2
1.069586526E0,-1.317929476E-2,-2.759677172E-2,-5.514144897E-3,3.107541494E-2
1.074584547E0,3.679163754E-3,3.584295511E-3,-2.684402466E-2,2.733102779E-2
1.079582567E0,1.549535245E-2,1.247346401E-3,6.638526917E-3,1.690360494E-2
1.084580588E0,5.884982646E-3,-1.070141792E-3,2.558994293E-2,2.627971468E-2
1.089578609E0,-3.750313073E-3,-8.170902729E-3,-1.738357544E-2,1.957082509E-2
1.094709547E0,-1.322060823E-3,-8.138805628E-3,8.892059326E-3,1.212669456E-2
1.099707567E0,1.085404307E-3,-2.943411469E-2,-1.018524170E-2,3.116543532E-2
1.104705588E0,2.015331388E-2,8.888214827E-3,-7.722854614E-3,2.334092771E-2
1.109703609E0,1.061066613E-2,1.807272434E-3,-1.003074646E-2,1.471286321E-2
1.114701630E0,1.292020269E-2,-5.317956209E-3,2.093601227E-2,2.517000011E-2
1.119699651E0,1.040615514E-2,1.601937413E-2,-7.747650146E-3,2.061393934E-2
1.124850484E0,5.588341504E-3,6.401181221E-3,1.819610596E-3,8.689974943E-3
1.129848505E0,1.744188368E-2,6.416052580E-3,-2.432441711E-2,3.061147342E-2
1.134846526E0,7.434636354E-4,-3.123342991E-3,9.136199951E-3,9.683912389E-3
1.139844547E0,-3.992896527E-3,-6.533265114E-4,9.061813354E-3,9.924037459E-3
1.144842567E0,3.164107352E-2,-5.175054073E-3,2.324581146E-2,3.960184931E-2
1.149840588E0,-6.613336504E-3,6.969898939E-3,1.678466797E-3,9.753612752E-3
1.154976630E0,-8.913848549E-3,-1.974105835E-4,4.040718079E-3,9.788925860E-3
1.159974651E0,1.261292957E-2,2.196490765E-3,-7.429122925E-4,1.282429268E-2
1.164972672E0,1.949704438E-2,-7.306843996E-3,1.114177704E-2,2.361490852E-2
1.169970692E0,1.217710786E-2,-7.229268551E-3,6.298065186E-3,1.549870655E-2
1.174968713E0,-1.646166295E-2,2.401590347E-3,1.574897766E-2,2.290817061E-2
1.179966734E0,2.703763545E-3,-2.125409245E-2,1.087093353E-2,2.402548604E-2
1.185099286E0,1.442094892E-2,2.668797970E-4,-1.099586487E-3,1.446527162E-2
1.190097307E0,9.622354060E-3,-6.948769093E-3,1.553630829E-2,1.955126504E-2
1.195095328E0,7.237762213E-3,-2.112719417E-2,2.728652954E-2,3.526043434E-2
1.200093349E0,-1.655702293E-2,-1.850715280E-2,3.305435181E-3,2.505145933E-2
1.205091370E0,2.554401755E-3,-2.313905954E-2,1.753044128E-2,2.914202149E-2
1.210089390E0,1.205922104E-2,-8.728533983E-3,-6.372451782E-3,1.619321646E-2
1.215230276E0,1.905674860E-2,-3.888010979E-3,3.183364868E-3,1.970812290E-2
1.220228297E0,-7.161840796E-3,8.606016636E-4,1.265716553E-2,1.456833683E-2
1.225226317E0,2.142671496E-2,8.698999882E-4,2.443122864E-2,3.250762638E-2
1.230224338E0,2.364612557E-2,9.308755398E-4,2.849578857E-3,2.383539140E-2
1.235222359E0,-5.089756101E-3,-8.562147617E-3,2.825737000E-3,1.035378088E-2
1.240220380E0,2.100173384E-3,3.351837397E-3,2.800941467E-3,4.846732433E-3
1.245361630E0,1.403352991E-2,-1.409798861E-3,9.905815125E-3,1.723521592E-2
1.250359651E0,1.393290609E-2,-1.088282466E-2,-9.180068970E-3,1.992072817E-2
1.255357672E0,2.814420499E-2,-8.503675461E-3,1.227378845E-2,3.185992238E-2
1.260355692E0,-1.947665960E-2,3.254532814E-3,9.792327881E-3,2.204136879E-2
1.265353713E0,-2.714924514E-3,1.037046313E-2,-1.879596710E-2,2.163806137E-2
1.270351734E0,4.455212504E-3,7.873445749E-3,2.739906311E-3,9.452362298E-3
1.275499130E0,-3.098882735E-4,-6.375133991E-3,-2.032279968E-3,6.698397272E-3
1.280497151E0,4.514899105E-3,-8.680641651E-3,7.488250732E-3,1.232119119E-2
1.285495172E0,-2.528987825E-4,1.036092639E-2,1.217556000E-2,1.598927812E-2
1.290493192E0,1.872264966E-2,-1.119208336E-2,1.935958862E-4,2.181370715E-2
1.295491213E0,-4.700571299E-4,3.067791462E-3,2.564430237E-3,4.025990636E-3
1.300489234E0,-5.196306854E-3,1.498833299E-2,1.679801941E-2,2.310465725E-2
1.305630172E0,-2.754397690E-3,1.730909944E-2,4.782676697E-3,1.816770834E-2
1.310628192E0,-5.137834698E-3,-6.470322609E-3,-9.506225586E-3,1.259486979E-2
1.315626213E0,-7.556222379E-3,1.498058438E-2,9.577751160E-3,1.931962014E-2
1.320624234E0,-5.043528974E-3,2.891004086E-3,-6.675720215E-6,5.813358212E-3
1.325622255E0,-1.195192710E-2,-4.398316145E-3,1.899433136E-2,2.286872034E-2
1.330620276E0,-2.227272838E-3,-1.389867067E-2,1.170825958E-2,1.830893588E-2
1.335758245E0,2.947337925E-4,9.936451912E-3,-2.643585205E-3,1.028632526E-2
1.340756265E0,4.910495132E-3,9.818345308E-3,2.127647400E-3,1.118211744E-2
1.345754286E0,-6.933920085E-3,-6.927549839E-3,2.111339569E-2,2.327757874E-2
1.350752307E0,-2.002157271E-3,1.927798986E-2,1.143550873E-2,2.250378606E-2
1.355750328E0,5.163565278E-3,3.365576267E-4,1.847362518E-2,1.918464242E-2
1.360748349E0,-6.789527833E-3,-1.973152161E-3,-6.828308105E-4,7.103328485E-3
1.365890849E0,1.229443215E-2,5.186825991E-3,-7.802963257E-3,1.545776379E-2
1.370888870E0,1.939126104E-2,-2.018094063E-3,-1.011371613E-2,2.196317286E-2
1.375886890E0,2.162306383E-2,-8.955478668E-3,-5.226135254E-4,2.341005366E-2
1.380884911E0,1.919024065E-2,-1.604235172E-2,1.135826111E-2,2.747057481E-2
1.385882932E0,2.472706139E-3,5.281031132E-3,-2.995491028E-3,6.555648859E-3
1.390880953E0,4.570931196E-5,9.849518538E-3,-7.725715637E-3,1.251805843E-2
1.396028140E0,9.569011629E-3,-4.468560219E-3,-1.003551483E-2,1.456865031E-2
1.401026161E0,7.184877992E-3,-1.866763830E-2,9.053230286E-3,2.195595979E-2
1.406024182E0,9.468164295E-3,2.426448464E-2,-5.245208740E-4,2.605161170E-2
1.411022203E0,-2.469040453E-3,5.023121834E-3,-1.477432251E-2,1.579900375E-2
1.416020224E0,-4.801575094E-3,1.202079654E-2,-4.005432129E-4,1.295048677E-2
1.421018245E0,-1.672034711E-2,7.186025381E-3,4.354476929E-3,1.871284151E-2
1.426156109E0,1.240223646E-4,-1.650592685E-2,6.697654724E-3,1.781346630E-2
1.431154130E0,2.384903096E-2,-9.225308895E-3,1.890182495E-3,2.564089296E-2
1.436152151E0,9.574782103E-3,5.121260881E-3,-5.251884460E-3,1.206176006E-2
1.441150172E0,2.857043780E-2,-4.406630993E-3,-5.207061768E-3,2.937348814E-2
1.446148192E0,9.243909270E-3,5.045592785E-3,-7.542610168E-3,1.295371890E-2
1.451146213E0,-5.065444857E-3,-4.430174828E-3,-3.509521484E-4,6.738571660E-3
1.456286161E0,2.593505569E-2,1.689702272E-2,-2.725601196E-3,3.107354811E-2
1.461284182E0,1.143789850E-2,9.645819664E-3,2.048492432E-3,1.510177739E-2
1.466282203E0,1.136348955E-2,-2.295583487E-3,-1.222038269E-2,1.684447540E-2
1.471280224E0,1.128969900E-2,-1.191720366E-2,-7.371902466E-3,1.799505467E-2
1.476278245E0,1.364382356E-2,9.423315525E-3,-4.938125610E-3,1.730138380E-2
1.481276265E0,1.597984880E-2,-9.643048048E-3,6.981849670E-3,1.992712142E-2
1.486420745E0,6.366055459E-3,2.332180738E-3,1.167488098E-2,1.350068795E-2
1.491418765E0,1.528035849E-3,1.172846556E-2,1.870155334E-2,2.212780819E-2
1.496416786E0,-7.859367877E-3,-2.606272697E-3,1.141929626E-2,1.410541201E-2
1.501414807E0,6.583787501E-3,-1.196649671E-2,6.577491760E-3,1.515937661E-2
1.506412828E0,1.129786484E-2,-1.184967160E-2,4.147529602E-3,1.688959647E-2
1.511410849E0,1.127790846E-2,-1.405826211E-2,-1.251411438E-2,2.194149064E-2
1.516560276E0,1.358100772E-2,-4.475086927E-3,-1.003551483E-2,1.746945138E-2
1.521558297E0,-7.644891739E-4,9.832084179E-3,-1.707839966E-2,1.972120833E-2
1.526556317E0,-5.540046841E-3,-1.166477799E-2,-7.434844971E-3,1.490087529E-2
1.531554338E0,2.551101334E-2,7.453620434E-3,-2.620697021E-3,2.670648446E-2
1.536552359E0,-1.506633312E-2,9.783923626E-3,-4.973411560E-3,1.864012815E-2
1.541550380E0,-5.419243127E-3,4.916459322E-3,-1.811981201E-4,7.319330645E-3
1.546690588E0,4.151135683E-3,8.812546730E-5,-1.443386078E-2,1.501918874E-2
1.551693401E0,2.082261071E-2,7.126420736E-3,-2.619266510E-2,3.421144098E-2
1.556696265E0,-7.098205388E-4,6.070733070E-5,-2.215385437E-3,2.327114783E-3
1.561699078E0,-1.266276091E-2,-1.422837377E-2,-1.645088196E-2,2.516790915E-2
1.566701942E0,-1.000078022E-2,4.806905985E-3,-1.156425476E-2,1.602666336E-2
1.571704755E0,-2.612955868E-3,-1.664835215E-2,-1.146793365E-2,2.038402977E-2
1.576817828E0,4.556816071E-3,-4.667788744E-3,-1.872062683E-3,6.786563427E-3
1.581820640E0,9.342651814E-3,1.909133792E-2,1.002120972E-2,2.349870147E-2
1.586823505E0,-2.149045467E-4,1.662495732E-2,1.469039917E-2,2.218655489E-2
1.591826317E0,-4.892975092E-3,4.625648260E-3,9.818077087E-3,1.190514447E-2
1.596829182E0,1.660341769E-2,2.124190331E-3,-6.895065308E-3,1.810324803E-2
1.601831995E0,2.336375415E-3,-5.107074976E-3,-6.839752197E-3,8.850032486E-3
1.606947724E0,-2.308368683E-3,-4.551112652E-4,7.467269897E-3,7.829164193E-3
1.611950536E0,-6.917178631E-3,-1.473945379E-2,-1.635169983E-2,2.307546198E-2
1.616953401E0,7.467944175E-3,-5.098015070E-3,5.165100098E-3,1.041336674E-2
1.621956213E0,-6.876867265E-3,-7.466435432E-3,-6.756782532E-3,1.219397686E-2
1.626959078E0,-2.047557384E-3,-2.740055323E-3,-6.703376770E-3,7.525666385E-3
1.631961890E0,-9.032566100E-3,-2.648711205E-3,5.233764648E-3,1.077010742E-2
1.637081734E0,-4.024181515E-3,-2.872645855E-4,2.419471741E-2,2.452877714E-2
1.642084547E0,7.813572884E-4,2.003759146E-3,1.686286926E-2,1.699946851E-2
1.647087411E0,7.870581001E-3,4.379272461E-3,9.595870972E-3,1.316072993E-2
1.652090224E0,1.020146534E-2,1.634076238E-2,1.716613770E-5,1.926371472E-2
1.657093088E0,1.488693804E-2,1.622149348E-2,4.769325256E-3,2.252785472E-2
1.662095901E0,9.932156652E-3,8.975923061E-3,-9.523391724E-3,1.642893546E-2
1.667214547E0,-1.150748134E-2,-1.019233465E-2,-4.696846008E-3,1.607377289E-2
1.672217359E0,2.862572670E-3,1.787006855E-3,4.845619202E-3,5.904891298E-3
1.677220224E0,-1.134024933E-2,1.593816280E-2,2.618312836E-2,3.268306135E-2
1.682223036E0,-2.067363262E-2,1.582181454E-2,2.210617065E-3,2.612691579E-2
1.687225901E0,1.515264064E-2,8.528232574E-3,-9.686470032E-3,1.990379288E-2
1.692228713E0,-6.331019104E-3,1.549661160E-2,-1.198387146E-2,2.058737353E-2
1.697346734E0,-1.454316080E-3,-1.064011455E-2,-4.754066467E-3,1.174428460E-2
1.702349547E0,3.276482224E-3,1.446813345E-3,1.191806793E-2,1.244463530E-2
1.707352411E0,1.504265890E-2,1.555293798E-3,1.657295227E-2,2.243575879E-2
1.712355224E0,2.913812734E-2,-1.501771808E-2,-4.942893982E-3,3.315108629E-2
1.717358088E0,1.223718561E-2,6.400108337E-3,2.597808838E-2,2.942059099E-2
1.722360901E0,5.079820752E-3,-1.744350791E-2,4.380226135E-3,1.868868449E-2
1.727491890E0,1.693664864E-2,-1.960337162E-2,4.345893860E-3,2.626840382E-2
1.732494703E0,-2.081193030E-3,-7.494270802E-3,1.936912537E-3,8.015428214E-3
1.737497567E0,-1.154659316E-2,6.838321686E-3,-1.470661163E-2,1.990906534E-2
1.742500380E0,-4.199203104E-3,1.640382409E-2,4.424095154E-3,1.750118194E-2
1.747503245E0,-6.573669612E-3,4.406571388E-3,-7.491111755E-3,1.089714453E-2
1.752506057E0,5.428496748E-3,-2.791434526E-3,-2.677917480E-3,6.665727694E-3
1.757615432E0,3.083568066E-3,6.750792265E-3,9.223937988E-3,1.183902953E-2
1.762618245E0,1.490619779E-2,6.659179926E-3,1.389694214E-2,2.143978569E-2
1.767621109E0,1.253251918E-2,-5.309343338E-3,1.378059387E-2,1.936899406E-2
1.772623922E0,5.372688174E-3,-2.420067787E-2,-5.855560303E-4,2.479680349E-2
1.777626786E0,5.962476134E-4,-1.210439205E-2,-1.245689392E-2,1.737947135E-2
1.782629599E0,1.011588052E-2,-2.588540316E-3,1.896858215E-3,1.061271175E-2
1.787743453E0,1.496604830E-2,-9.624004364E-3,2.088832855E-2,2.743950312E-2
1.792746265E0,7.840793580E-3,-4.724413157E-3,6.464004517E-3,1.120631420E-2
1.797749130E0,3.094077110E-3,-9.574413300E-3,-7.847785950E-3,1.276050342E-2
1.802751942E0,1.031946391E-2,2.296179533E-3,8.845329285E-3,1.378418028E-2
1.807754807E0,2.207874879E-2,-2.457141876E-3,-7.858276367E-3,2.356398103E-2
1.812757620E0,1.008829474E-2,-9.602308273E-5,-1.967144012E-2,2.210765632E-2
1.817876734E0,-1.372817904E-2,1.169329882E-2,-2.882003784E-3,1.826203939E-2
1.822879547E0,2.935335040E-3,2.161771059E-3,1.139736176E-2,1.196617319E-2
1.827882411E0,2.883035690E-3,2.159982920E-3,1.800537109E-3,4.027326021E-3
1.832885224E0,2.198786661E-2,6.806135178E-3,-1.009368896E-2,2.513309195E-2
1.837888088E0,1.707296818E-2,-2.787649632E-3,2.087116241E-2,2.710835026E-2
1.842890901E0,1.209388115E-2,-9.873896837E-3,6.443977356E-3,1.689025293E-2
1.848007099E0,7.210440934E-3,4.425704479E-3,-3.113746643E-3,9.015139309E-3
1.853009911E0,-4.707921296E-3,-7.471948862E-3,-7.114410400E-4,8.860061573E-3
1.858012776E0,-1.425201818E-2,-3.702342510E-4,-2.208805084E-2,2.628952426E-2
1.863015588E0,1.439565048E-2,1.921236515E-3,-1.240444183E-2,1.909963559E-2
1.868018453E0,1.429509744E-2,-5.256295204E-3,1.620388031E-2,2.223834947E-2
1.873021265E0,4.749603570E-3,-2.820760012E-3,-1.243591309E-2,1.360762122E-2
1.878140432E0,-9.574804455E-3,4.452496767E-3,-3.608417511E-2,3.759746403E-2
1.883143245E0,-9.423792362E-3,2.322936058E-2,6.971359253E-3,2.601943322E-2
1.888146109E0,1.275278628E-4,-2.456212044E-2,9.285926819E-3,2.625914052E-2
1.893148922E0,-4.652447999E-3,-1.241165400E-2,-2.667427063E-3,1.352070983E-2
1.898151786E0,2.689301968E-3,1.151567698E-2,4.484176636E-3,1.264717365E-2
1.903154599E0,5.064878613E-3,-1.231917739E-2,-1.218128204E-2,1.804989637E-2
1.908278870E0,2.615503967E-3,2.343362570E-2,-7.328987122E-3,2.469189597E-2
1.913281682E0,-4.508931190E-3,6.574004889E-3,-9.643554688E-3,1.251184030E-2
1.918284547E0,1.935676113E-2,-1.489573717E-2,9.440422058E-3,2.618565936E-2
1.923287359E0,2.589143813E-3,-2.668464184E-2,1.173591614E-2,2.926611528E-2
1.928290224E0,-1.156110317E-2,-9.868621826E-3,-3.112220764E-2,3.463582844E-2
1.933293036E0,9.987819940E-3,-1.214519143E-2,-2.355575562E-3,1.590003013E-2
1.938411265E0,1.942503452E-2,-7.328361273E-3,-1.659011841E-2,2.657571963E-2
1.943414130E0,-4.526138306E-3,-1.210483909E-2,-1.170349121E-2,1.743515884E-2
1.948416942E0,1.696567610E-2,-2.537190914E-3,-1.160717010E-2,2.071226451E-2
1.953419755E0,2.697132528E-3,1.418098807E-2,-1.388359070E-2,2.002820604E-2
1.958422620E0,2.797674388E-3,9.173184633E-3,-2.564907074E-2,2.738337321E-2
1.963425432E0,1.952614263E-2,6.738126278E-3,1.019859314E-2,2.303657730E-2
1.968537307E0,9.932491928E-3,-9.982198477E-3,3.149223328E-2,3.449723814E-2
1.973540120E0,-9.186979383E-3,-7.558375597E-3,5.098342896E-3,1.294305729E-2
1.978542984E0,7.642887533E-3,2.815437317E-2,-2.344989777E-2,3.742966956E-2
1.983545797E0,1.008079946E-2,4.180818796E-3,7.629394531E-3,1.331575850E-2
1.988548661E0,7.695510983E-3,-1.014259458E-2,4.377365112E-4,1.273910229E-2
1.993551474E0,-6.599389017E-3,6.587177515E-3,9.937286377E-3,1.362690367E-2
1.998670745E0,1.005277410E-2,-5.381315947E-3,2.726554871E-3,1.172394686E-2
2.003673557E0,1.468767598E-2,4.130750895E-3,-4.424095154E-3,1.588595438E-2
2.008676422E0,1.701659709E-2,8.811801672E-3,1.699161530E-2,2.561107994E-2
2.013679234E0,4.967745394E-3,-1.257318258E-2,1.210021973E-2,1.814328338E-2
2.018682099E0,1.218206622E-2,4.020899534E-3,-1.413440704E-2,1.908800233E-2
2.023684911E0,-1.165085286E-2,-1.272875071E-2,-1.401901245E-2,2.223277259E-2
2.028809338E0,7.579669356E-3,1.541286707E-3,-1.628017426E-2,1.802417893E-2
2.033812151E0,1.476614550E-2,2.039423585E-2,-6.646156311E-3,2.604103113E-2
2.038815015E0,2.839658409E-3,1.786521077E-2,5.369186401E-4,1.809745003E-2
2.043817828E0,5.264271051E-3,-3.646820784E-3,-1.371955872E-2,1.514061237E-2
2.048820692E0,7.717452943E-3,-8.350342512E-3,-1.835536957E-2,2.159182466E-2
2.053823505E0,7.774647325E-3,-5.888074636E-3,-8.698463440E-3,1.306819919E-2
2.058935536E0,2.203430608E-2,1.550540328E-2,8.745193481E-4,2.695724317E-2
2.063942203E0,2.920698375E-3,-5.883455276E-3,-1.575756073E-2,1.707179678E-2
2.068948870E0,2.973709255E-3,-1.062133908E-2,-2.988052368E-2,3.185123995E-2
2.073955536E0,-1.366040483E-2,1.551130414E-2,1.550006866E-2,2.583523456E-2
2.078962203E0,1.022824273E-2,-1.437157393E-3,1.298999786E-2,1.659585536E-2
2.083968870E0,1.496990770E-2,3.290295601E-3,-1.562500000E-2,2.188754913E-2
2.089070588E0,1.470801979E-2,7.925301790E-3,3.506660461E-3,1.707140657E-2
2.094077255E0,1.930260658E-2,-4.156798124E-3,-1.077938080E-2,2.249588055E-2
2.099083922E0,2.159008011E-2,1.247149706E-2,-1.306629181E-2,2.814956092E-2
2.104090588E0,1.564733684E-4,1.475957036E-2,-1.058101654E-2,1.816114843E-2
2.109097255E0,2.553172410E-3,1.702859998E-2,-3.365516663E-3,1.754476016E-2
2.114103922E0,-2.253092825E-3,-2.152264118E-3,2.041721344E-2,2.065360193E-2
2.119199859E0,-6.860069931E-3,-4.492610693E-3,1.074600220E-2,1.351742111E-2
2.124206526E0,7.629826665E-3,-4.594475031E-3,-1.072597504E-2,1.394166404E-2
2.129213192E0,1.471381262E-2,-3.309771419E-2,3.615379333E-3,3.640090567E-2
2.134219859E0,1.218173839E-2,7.579386234E-3,2.021408081E-2,2.478812032E-2
2.139226526E0,-2.046849579E-3,-2.340111136E-2,-2.271556854E-2,3.267718869E-2
2.144233192E0,2.742230892E-3,5.420774221E-3,-1.539516449E-2,1.655039918E-2
2.149342047E0,2.163616568E-2,-1.892179251E-3,1.357078552E-3,2.176110452E-2
2.154348713E0,-2.277046442E-3,3.600716591E-4,-5.784988403E-3,6.227413823E-3
2.159355380E0,1.924942806E-2,3.214776516E-4,6.140708923E-3,2.020772463E-2
2.164362047E0,-4.541721195E-3,-2.091854811E-3,8.463859558E-3,9.830564917E-3
2.169368713E0,-6.701417267E-3,-1.873853803E-2,-8.234977722E-3,2.153733175E-2
2.174375380E0,5.359776318E-3,4.381835461E-4,-8.165359497E-3,9.777131620E-3
2.179477724E0,1.726852730E-2,-1.860582829E-2,1.090621948E-2,2.762832794E-2
2.184484390E0,2.889316529E-3,-1.804828644E-3,-1.531505585E-2,1.568937513E-2
2.189491057E0,1.001128927E-2,2.874493599E-3,3.813743591E-3,1.109203617E-2
2.194497724E0,2.822197974E-3,9.993880987E-3,-9.679794312E-4,1.042973838E-2
2.199504390E0,-4.306975752E-3,-1.794844866E-3,1.329803467E-2,1.409287885E-2
2.204511057E0,1.723489910E-2,1.011428237E-2,8.438110352E-3,2.169198380E-2
2.209623401E0,2.913929522E-3,7.671296597E-3,-5.885124207E-3,1.009824062E-2
2.214630067E0,-4.211470485E-3,-2.093487978E-2,-1.058769226E-2,2.383495128E-2
2.219636734E0,7.671933621E-3,-2.565056086E-2,-1.001358032E-3,2.679202410E-2
2.224643401E0,1.480589062E-2,5.358427763E-3,6.132125854E-3,1.689763630E-2
2.229650067E0,1.470194384E-2,-1.744061708E-3,-5.795478821E-3,1.589894584E-2
2.234656734E0,-6.779458374E-3,-1.612156630E-2,1.325321198E-2,2.194341777E-2
2.239740172E0,2.800457180E-3,5.006194115E-4,-8.239746094E-3,8.717029075E-3
2.244746838E0,1.467424631E-2,7.536262274E-3,6.078720093E-3,1.758065960E-2
2.249753505E0,1.694542170E-2,2.084970474E-4,1.077556610E-2,2.008242048E-2
2.254760172E0,4.898656160E-3,-2.152532339E-3,1.306056976E-2,1.411413158E-2
2.259766838E0,2.452917397E-3,2.736628056E-3,-1.297950745E-3,3.897513696E-3
2.264773505E0,-2.349488437E-3,9.909003973E-3,1.059341431E-2,1.469451879E-2
2.269862672E0,-4.789546132E-3,-6.785333157E-3,-6.124496460E-3,1.031939703E-2
2.274869338E0,2.396415919E-3,9.968727827E-3,1.055717468E-3,1.030693374E-2
2.279876005E0,1.902464777E-2,-9.205400944E-3,-1.320934296E-2,2.492314929E-2
2.284882672E0,1.175893657E-2,-1.164284348E-2,-8.351325989E-3,1.853572333E-2
2.289889338E0,1.168038510E-2,-1.168441772E-2,1.215934753E-3,1.656609522E-2
2.294896005E0,-1.220624521E-2,-9.142488241E-3,1.308536530E-2,2.009488239E-2
2.299997463E0,-2.158378065E-2,5.203723907E-3,-6.027221680E-3,2.300577603E-2
2.305004130E0,5.325675011E-5,-1.155608892E-2,1.065063477E-2,1.571566252E-2
2.310010797E0,-7.101662457E-3,-1.889526844E-3,-3.689765930E-3,8.223034353E-3
2.315017463E0,-7.128242403E-3,1.007291675E-2,-3.657341003E-3,1.287057243E-2
2.320024130E0,1.195338182E-2,-1.137369871E-2,8.252143860E-3,1.844836680E-2
2.325030797E0,1.688501239E-2,-6.511092186E-3,-3.692626953E-3,1.846979855E-2
2.330129755E0,-2.131517977E-3,-1.124393940E-2,5.840301514E-3,1.284829420E-2
2.335136422E0,1.221074723E-2,-8.913308382E-3,-6.090164185E-3,1.629845127E-2
2.340143088E0,1.682614535E-2,-1.130110025E-2,-6.042480469E-3,2.115054620E-2
2.345149755E0,1.428252831E-2,-9.074330330E-3,1.127243042E-3,1.695891396E-2
2.350156422E0,2.363627590E-2,-9.085923433E-3,8.241653442E-3,2.662991541E-2
2.355163088E0,-3.454498947E-4,-8.993715048E-3,5.797386169E-3,1.070588307E-2
2.360260536E0,6.806913763E-3,-1.365303993E-2,-1.800537109E-2,2.359942717E-2
2.365267203E0,-2.680681646E-3,-3.009927273E-2,-3.600120544E-3,3.043210707E-2
2.370273870E0,-7.440309972E-3,-1.563036442E-2,3.206157684E-2,3.643639958E-2
2.375280536E0,6.790656596E-3,-1.321133971E-2,1.041221619E-2,1.814019735E-2
2.380287203E0,1.625717059E-2,8.139729500E-3,-1.556396484E-3,1.824755222E-2
2.385293870E0,-5.234159529E-3,1.521477103E-2,-6.294250488E-3,1.727724726E-2
2.390392255E0,-5.274794996E-3,5.814045668E-3,-1.098537445E-2,1.350203841E-2
2.395398922E0,2.102470770E-2,-1.559755206E-2,5.735397339E-3,2.679956617E-2
2.400405588E0,6.669070572E-3,3.501594067E-3,1.993942261E-2,2.131474225E-2
2.405412255E0,1.143736579E-2,8.292019367E-3,5.521774292E-3,1.516775898E-2
2.410418922E0,-1.239388809E-2,-3.585994244E-3,-1.590251923E-2,2.047823074E-2
2.415425588E0,1.866417378E-2,-1.163870096E-3,3.234863281E-3,1.897815368E-2
2.420535588E0,2.565508150E-2,1.291573048E-3,5.585670471E-3,2.628785047E-2
2.425542255E0,4.080880433E-3,-5.828857422E-3,-8.712768555E-3,1.124906662E-2
2.430548922E0,-3.063347191E-3,1.415550709E-3,-8.638381958E-3,9.274131909E-3
2.435555588E0,-5.392409861E-3,6.223350763E-3,-2.044296265E-2,2.203912205E-2
2.440562255E0,4.126816988E-3,1.488506794E-3,-8.392333984E-3,9.469822629E-3
2.445568922E0,1.371921226E-2,1.109862328E-2,1.183509827E-3,1.768606568E-2
2.450657411E0,2.788248844E-2,-3.283262253E-3,1.173019409E-3,2.809962540E-2
2.455664078E0,2.529706247E-2,-2.704662085E-2,1.066493988E-2,3.853831874E-2
2.460670745E0,3.829527646E-3,-2.205324173E-2,-1.301765442E-3,2.242109154E-2
2.465677411E0,-3.257729113E-3,1.902848482E-3,-3.665924072E-3,5.260478174E-3
2.470684078E0,-5.536373705E-3,1.610550284E-2,1.299285889E-2,2.142085520E-2
2.475690745E0,4.031334072E-3,6.434261799E-3,-1.324653625E-2,1.526833658E-2
2.480793036E0,-1.017820835E-2,4.021644592E-3,1.117706299E-3,1.100085532E-2
2.485799703E0,-2.945829183E-3,-7.821023464E-3,3.485679626E-3,9.055179737E-3
2.490806370E0,1.899536699E-3,-1.248973608E-2,-1.792240143E-2,2.192747637E-2
2.495813036E0,4.335071892E-3,-7.670164108E-3,5.981445312E-3,1.064903535E-2
2.500819703E0,2.084800974E-2,1.131060719E-2,5.928993225E-3,2.444835998E-2
2.505826370E0,-7.811225951E-3,1.123306155E-2,-5.997657776E-3,1.493883601E-2
2.510922307E0,1.727662981E-3,-1.017108560E-2,2.731227875E-2,2.919582799E-2
2.515928974E0,-1.494944096E-2,-2.994418144E-3,-1.330089569E-2,2.023279889E-2
2.520935640E0,1.840024069E-2,-1.013097167E-2,-2.031803131E-2,2.922375473E-2
2.525942307E0,1.587245613E-3,-3.006935120E-3,1.310634613E-2,1.354021109E-2
2.530948974E0,-5.581971258E-3,-5.340903997E-3,1.119613647E-3,7.806227857E-3
2.535955640E0,-1.026558504E-2,-1.473003626E-2,1.536560059E-2,2.363171356E-2
2.541061057E0,1.834932342E-2,-1.464334130E-2,1.998806000E-2,3.083257461E-2
2.546067724E0,6.289344281E-3,-1.713958383E-2,1.743793488E-2,2.524683659E-2
2.551074390E0,1.813556626E-2,-1.708376408E-2,-4.090309143E-3,2.524845317E-2
2.556081057E0,2.513503842E-2,-1.697698236E-2,-4.056930542E-3,3.060141781E-2
2.561087724E0,2.252218686E-2,-2.669721842E-3,7.852554321E-3,2.400081093E-2
2.566094390E0,9.756051004E-4,-1.515448093E-4,-4.087448120E-3,4.204997417E-3
2.571189286E0,3.415532410E-3,1.174461842E-2,1.257610321E-2,1.754309823E-2
2.576199026E0,1.296510547E-2,1.161113381E-2,1.247024536E-2,2.141073114E-2
2.581208817E0,1.108657569E-3,4.403799772E-3,5.241394043E-3,6.935040415E-3
2.586218557E0,5.819570273E-3,-1.704791188E-2,2.820968628E-3,1.823339139E-2
2.591228297E0,8.166044950E-3,-5.011200905E-3,2.798080444E-3,9.981266393E-3
2.596238088E0,-8.460979909E-3,1.880306005E-2,9.902954102E-3,2.287382234E-2
2.601320224E0,1.306016371E-2,-7.467150688E-3,2.694129944E-3,1.528347315E-2
2.606329963E0,3.471657634E-3,-7.388442755E-3,-9.204864502E-3,1.230329320E-2
2.611339755E0,-1.322000474E-2,-1.206079125E-2,2.749443054E-3,1.810498959E-2
2.616349495E0,1.309086010E-2,4.685610533E-3,-2.102851868E-2,2.520960456E-2
2.621359234E0,2.730782889E-2,-1.396834850E-4,-1.850128174E-3,2.737078743E-2
2.626369026E0,2.462040074E-2,6.901264191E-3,1.716709137E-2,3.079773703E-2
2.631460588E0,-3.966014832E-3,1.631036401E-2,-3.286266327E-2,3.690138053E-2
2.636470328E0,-1.432713121E-3,-2.865016460E-3,-2.308845520E-2,2.330960638E-2
2.641480120E0,9.741969407E-4,4.146784544E-3,-1.520156860E-3,4.522804286E-3
2.646489859E0,1.054106094E-2,-3.049552441E-3,-1.508712769E-3,1.107654955E-2
2.651499599E0,1.517033204E-2,1.847863197E-3,-1.492500305E-3,1.535516623E-2
2.656509390E0,2.213655971E-2,1.367542148E-2,-3.856658936E-3,2.630433893E-2
2.661595067E0,1.965203509E-2,-7.906943560E-3,-2.520561218E-2,3.292484055E-2
2.666604807E0,1.481306925E-2,-7.500350475E-4,-1.241683960E-3,1.488392933E-2
2.671614599E0,9.906111285E-3,1.648694277E-3,1.777267456E-2,2.041365216E-2
2.676624338E0,-6.834600121E-3,1.651436090E-3,2.237606049E-2,2.345478806E-2
2.681634078E0,-9.080346674E-3,-7.730424404E-4,-1.344490051E-2,1.624240254E-2
2.686643870E0,1.962496340E-2,-7.876276970E-3,9.212493896E-4,2.116656864E-2
2.691716370E0,2.671276592E-2,4.136711359E-3,5.667686462E-3,2.761895932E-2
2.696726109E0,-1.154784113E-2,-1.731297374E-2,-1.338481903E-2,2.474358654E-2
2.701735901E0,-1.850538701E-2,-1.007726789E-2,8.106231689E-3,2.257679491E-2
2.706745640E0,-8.675482124E-3,1.953423023E-3,1.041698456E-2,1.369647469E-2
2.711755380E0,8.098408580E-3,-7.600188255E-3,-1.105117798E-2,1.566766153E-2
2.716765172E0,2.710805275E-2,2.085775137E-3,-1.453399658E-3,2.722699675E-2
2.721854703E0,2.215237357E-2,-1.697167754E-2,-8.567810059E-3,2.919199997E-2
2.726864442E0,1.480871066E-2,-7.207393646E-3,-2.987289429E-2,3.411208360E-2
2.731874234E0,-9.100988507E-3,1.187366247E-2,-1.774692535E-2,2.321131646E-2
2.736883974E0,7.626090199E-3,-1.423594356E-2,3.785133362E-3,1.658754277E-2
2.741893713E0,-2.092296258E-2,-2.830198407E-2,-2.950191498E-2,4.592532692E-2
2.746903505E0,-1.671481878E-3,-6.721466780E-3,-5.502700806E-3,8.845998163E-3
2.751983817E0,-6.336327642E-3,1.240861416E-2,1.671791077E-3,1.403273454E-2
2.756993557E0,8.092865348E-3,5.247384310E-3,-7.841110229E-3,1.243030656E-2
2.762003349E0,-3.726042807E-3,1.482605934E-2,1.123237610E-2,1.897002118E-2
2.767013088E0,-3.777787089E-3,5.217045546E-3,2.776718140E-2,2.850448390E-2
2.772022828E0,1.284848154E-2,1.469287276E-2,1.404762268E-3,1.956878496E-2
2.777032620E0,-1.099148765E-2,2.761095762E-3,1.802349091E-2,2.129043623E-2
2.782115484E0,-3.595672548E-3,3.797113895E-4,1.245498657E-3,3.824174253E-3
2.787125224E0,8.281059563E-3,2.376139164E-4,8.358001709E-3,1.176811796E-2
2.792135015E0,1.541148871E-2,1.688107848E-2,1.162528992E-3,2.288746969E-2
2.797144755E0,-1.324750483E-3,1.448535919E-2,1.065921783E-2,1.803328921E-2
2.802154495E0,1.053457893E-2,2.150774002E-2,3.443717957E-3,2.419544229E-2
2.807164286E0,3.341134638E-3,-1.201605797E-2,1.291370392E-2,1.795306600E-2
2.812246317E0,3.390267491E-3,9.533017874E-3,2.468585968E-2,2.667890574E-2
2.817256057E0,5.813434720E-3,7.146179676E-3,3.102302551E-3,9.720503502E-3
2.822265849E0,-8.416920900E-3,-4.825979471E-3,1.732826233E-2,1.985958989E-2
2.827275588E0,-1.075629145E-2,1.903864741E-2,2.932548523E-3,2.206281355E-2
2.832285328E0,5.877781659E-3,-4.806548357E-3,1.716327667E-2,1.876777266E-2
2.837295120E0,2.000074461E-2,-7.177412510E-3,3.910064697E-4,2.125318615E-2
2.842380172E0,2.460487001E-2,-4.830181599E-3,3.852844238E-4,2.507745454E-2
2.847389911E0,1.718889177E-2,-9.627848864E-3,-1.862525940E-2,2.711187492E-2
2.852399703E0,9.991874918E-3,-2.875924110E-5,3.854370117E-2,3.981777607E-2
2.857409442E0,2.190948837E-2,4.583835602E-3,2.634143829E-2,3.456745002E-2
2.862419182E0,1.467313617E-2,-2.564281225E-3,1.662063599E-2,2.231864700E-2
2.867428974E0,7.497090846E-3,-3.063082695E-4,-1.440334320E-2,1.624058162E-2
2.872517828E0,2.175873704E-2,-1.232215762E-2,-3.433227539E-5,2.500558707E-2
2.877527567E0,1.452364028E-2,-5.179911852E-3,2.371978760E-2,2.829126963E-2
2.882537359E0,-9.275350720E-3,-1.235106587E-2,-4.986763000E-3,1.623110484E-2
2.887547099E0,-4.371095449E-3,-9.908199310E-3,-1.945495605E-4,1.083128517E-2
2.892556838E0,-4.418998957E-3,-1.688343287E-2,-4.941940308E-3,1.813837454E-2
2.897566630E0,7.463064045E-3,-5.003750324E-3,-4.904747009E-3,1.023676636E-2
2.902640953E0,3.365811333E-2,9.150415659E-3,-1.436901093E-2,3.772356259E-2
2.907650692E0,-2.133756876E-3,-1.234036684E-2,1.900768280E-2,2.276245983E-2
2.912660484E0,2.707943320E-3,-3.122511506E-2,6.973266602E-3,3.210867818E-2
2.917670224E0,1.221000776E-2,-1.437154412E-2,2.162933350E-3,1.898167144E-2
2.922679963E0,2.157795615E-2,4.665642977E-3,2.352237701E-2,3.225955109E-2
2.927689755E0,1.415051520E-4,-2.690464258E-3,-5.185127258E-3,5.843300978E-3
2.932777099E0,-1.161070168E-2,-3.121021390E-2,4.360198975E-3,3.358418051E-2
2.937786838E0,9.944835678E-3,2.271384001E-3,1.857566833E-2,2.119231927E-2
2.942796630E0,5.134895444E-3,7.019817829E-3,8.919715881E-3,1.245818305E-2
2.947806370E0,-6.813455373E-3,-1.682966948E-2,-1.491165161E-2,2.349506975E-2
2.952816109E0,-1.981593668E-3,-2.622714639E-2,-3.141689301E-2,4.097329725E-2
2.957825901E0,-1.945648342E-3,-4.611849785E-3,-2.648353577E-3,5.662904076E-3
2.962912828E0,2.842918038E-3,-6.984710693E-3,-9.753227234E-3,1.232857688E-2
2.967922567E0,1.244609803E-2,-1.883935928E-2,-1.707077026E-4,2.257999016E-2
2.972932359E0,1.948842034E-2,-1.153880358E-2,2.121162415E-2,3.103023548E-2
2.977942099E0,2.373792231E-4,-1.923620701E-3,-7.472038269E-3,7.719327781E-3
2.982951838E0,-9.245794266E-3,-4.266411066E-3,-2.657890320E-3,1.052384701E-2
2.987961630E0,7.532857358E-3,7.611662149E-3,1.636791229E-2,1.955990525E-2
2.993041057E0,1.223930717E-2,-9.220987558E-3,-5.152702332E-3,1.616717640E-2
2.998050797E0,1.205450296E-2,1.689970493E-2,-1.223850250E-2,2.409755199E-2
3.003060588E0,1.507252455E-4,2.470284700E-3,-7.387161255E-3,7.790710879E-3
3.008070328E0,1.685411856E-2,-2.388864756E-3,-4.951477051E-3,1.772808822E-2
3.013080067E0,1.673767343E-2,1.417234540E-2,-4.913330078E-3,2.247545102E-2
3.018089859E0,1.181619242E-2,4.465013742E-3,-4.875183105E-3,1.353979916E-2
3.023179338E0,-1.867376268E-4,2.015918493E-3,-9.586334229E-3,9.797785579E-3
3.028189078E0,1.409052312E-2,-7.590323687E-3,9.494781494E-3,1.860931840E-2
3.033198870E0,9.136172011E-3,-1.468843222E-2,2.129173279E-2,2.743278267E-2
3.038208609E0,4.326876253E-3,-2.723097801E-3,-5.018234253E-3,7.163783551E-3
3.043218349E0,-1.696124300E-2,-2.787888050E-3,-1.923179626E-2,2.579376032E-2
3.048228140E0,-9.670805186E-3,-5.071789026E-3,-6.484985352E-5,1.092024370E-2
3.053306526E0,-2.494953573E-3,-7.388144732E-3,1.418876648E-2,1.619044688E-2
3.058316265E0,-2.505086362E-3,2.036660910E-3,-9.688377380E-3,1.021215460E-2
3.063326057E0,9.313715622E-3,1.828432083E-3,-1.673984528E-2,1.924346337E-2
3.068335797E0,1.395473257E-2,6.581157446E-3,-2.346992493E-3,1.560623491E-2
3.073345536E0,4.409130663E-3,1.134598255E-2,2.426147461E-3,1.241200809E-2
3.078355328E0,-2.678338438E-3,1.126772165E-2,9.533882141E-3,1.500099852E-2
3.083449911E0,1.405145973E-2,-1.488798857E-2,-1.667499542E-2,2.640362090E-2
3.088462151E0,2.131074667E-3,4.153072834E-3,-7.036209106E-3,8.443798422E-3
3.093474390E0,1.168834418E-2,-1.471340656E-2,2.531051636E-3,1.896069473E-2
3.098486630E0,-2.657771111E-4,-9.771108627E-3,-6.990432739E-3,1.201712741E-2
3.103498870E0,-1.937374473E-4,1.997530460E-3,-1.168823242E-2,1.185927651E-2
3.108511109E0,-7.247384638E-3,6.645053625E-3,7.411956787E-3,1.231334338E-2
3.113580276E0,-3.917515278E-5,-1.947185397E-2,1.447772980E-2,2.426436259E-2
3.118592515E0,4.733193666E-3,1.983165741E-3,9.603500366E-3,1.088867705E-2
3.123604755E0,1.178638265E-2,-9.997725487E-3,7.144927979E-3,1.702713501E-2
3.128616995E0,-2.154687047E-2,-2.771317959E-3,-9.542465210E-3,2.372775743E-2
3.133629234E0,8.692219853E-5,-2.783626318E-3,-2.337455750E-3,3.635908460E-3
3.138641474E0,-5.007907748E-5,-4.198849201E-4,2.431869507E-3,2.468359892E-3
3.143708349E0,7.150627673E-3,-2.827525139E-3,-4.715919495E-3,9.020325449E-3
3.148720588E0,1.186764985E-2,-5.267232656E-3,-1.893234253E-2,2.295688233E-2
3.153732828E0,-2.460457385E-3,-4.559755325E-4,2.606391907E-3,3.613176303E-3
3.158745067E0,4.709146917E-3,-3.837645054E-4,7.337570190E-3,8.727157394E-3
3.163757307E0,-1.183103025E-2,-1.234576106E-2,-6.979942322E-3,1.846918211E-2
3.168769547E0,-9.279452264E-3,-2.932310104E-3,-1.167774200E-2,1.520119519E-2
3.173836265E0,2.644289285E-3,1.807630062E-3,-2.079963684E-3,3.819167604E-3
3.178848505E0,2.159409784E-2,4.081189632E-3,5.061149597E-3,2.255163864E-2
3.183860745E0,2.381217293E-2,6.387323141E-3,-2.108573914E-3,2.474396009E-2
3.188872984E0,-6.723776460E-5,-1.027819514E-2,-1.396751404E-2,1.734177801E-2
3.193885224E0,-2.474673092E-3,1.130801439E-2,7.533073425E-3,1.381095187E-2
3.198897463E0,1.182014495E-2,1.835709810E-2,1.459693909E-2,2.626346337E-2
3.203968922E0,1.892507076E-2,-5.639791489E-3,9.722709656E-3,2.201128425E-2
3.208981161E0,-5.015902221E-3,-8.773505688E-4,4.889488220E-3,7.059469822E-3
3.213993401E0,-1.012869179E-4,6.117999554E-3,-1.653480530E-2,1.763065409E-2
3.219005640E0,1.670349017E-2,-8.221209049E-3,-2.143859863E-3,1.874009064E-2
3.224017880E0,4.762526602E-3,3.637462854E-3,1.687622070E-2,1.790864654E-2
3.229030120E0,1.191929355E-2,3.520488739E-3,2.148532867E-2,2.482101424E-2
3.234101526E0,-2.412039787E-3,5.883604288E-3,1.418018341E-2,1.554066720E-2
3.239113765E0,4.859462380E-3,-2.027964592E-2,-7.317543030E-3,2.210033595E-2
3.244126005E0,2.566695213E-3,-1.777011156E-2,6.996154785E-3,1.926943100E-2
3.249138245E0,-6.882440299E-3,-8.051455021E-3,9.315490723E-3,1.410575343E-2
3.254150484E0,9.879598394E-3,-5.644410849E-3,1.873874664E-2,2.192273852E-2
3.259162724E0,2.174936049E-2,-8.298158646E-4,-1.229858398E-2,2.499956888E-2
3.264235172E0,1.214280352E-2,8.643209934E-3,-1.219749451E-2,1.925958534E-2
3.269247411E0,7.308471948E-3,-1.017600298E-3,6.905555725E-3,1.010623434E-2
3.274259651E0,7.265504450E-3,-1.054602861E-2,9.222984314E-3,1.578194266E-2
3.279271890E0,-2.328127623E-3,-1.519250870E-2,2.018928528E-3,1.550188928E-2
3.284284130E0,1.201738045E-2,-3.223419189E-3,-5.125999451E-3,1.345673565E-2
3.289296370E0,7.236000150E-3,1.467883587E-3,4.417419434E-3,8.603951119E-3
3.294366422E0,-4.574224353E-3,1.262307167E-3,1.387786865E-2,1.466670332E-2
3.299378661E0,1.464489847E-2,-1.071301103E-2,4.258155823E-3,1.863795986E-2
3.304390901E0,1.227211580E-2,5.917936563E-3,2.560043335E-2,2.900015495E-2
3.309403140E0,7.491663098E-3,1.030445099E-3,-5.497932434E-3,9.349550477E-3
3.314415328E0,2.751037478E-3,-6.139963865E-3,-3.077507019E-3,7.398541270E-3
3.319427567E0,1.467868686E-2,-2.285659313E-2,-1.018142700E-2,2.900946661E-2
3.324510745E0,5.129668862E-3,-1.562803984E-2,-2.435207367E-2,2.938660620E-2
3.329522984E0,3.049112856E-4,-3.603428602E-3,-3.938674927E-4,3.637691601E-3
3.334535224E0,2.804215997E-3,-5.880504847E-3,6.739616394E-3,9.373707578E-3
3.339547463E0,5.285736173E-3,6.010323763E-3,-1.707363129E-2,1.885661380E-2
3.344559651E0,1.249309629E-2,-1.149684191E-3,-2.168178558E-2,2.504993123E-2
3.349571942E0,2.423725836E-2,-5.978465080E-3,-1.675224304E-2,3.006367217E-2
3.354645067E0,3.825873137E-2,-1.794725657E-2,1.188945770E-2,4.389981490E-2
3.359657307E0,1.663143188E-2,-8.330523968E-3,1.178932190E-2,2.202249456E-2
3.364669547E0,-1.149550080E-4,-3.389507532E-3,-9.684562683E-3,1.026122460E-2
3.369681786E0,2.133872174E-2,1.302748919E-3,9.398460388E-3,2.335314235E-2
3.374693974E0,-4.900172353E-3,-3.545880318E-3,1.881980896E-2,1.976790747E-2
3.379706265E0,-2.566643059E-3,-1.775285602E-2,9.160995483E-3,2.014138505E-2
3.384780692E0,4.653606564E-3,-1.758781075E-2,-4.167556763E-4,1.819782477E-2
3.389792932E0,-1.602247357E-5,1.593744755E-2,-1.703834534E-2,2.333040297E-2
3.394805172E0,-7.017709315E-3,-1.981171966E-2,6.860733032E-3,2.210932241E-2
3.399817411E0,-4.610061646E-3,1.801192760E-3,-3.213882446E-4,4.959864327E-3
3.404829599E0,-1.162385568E-2,2.545425296E-2,1.868343353E-2,3.364674877E-2
3.409841890E0,2.644763328E-2,-8.205860853E-3,-9.984016418E-3,2.943627086E-2
3.414914911E0,-2.310521901E-3,-3.369510174E-3,-2.775192261E-3,4.939008235E-3
3.419927151E0,7.283769548E-3,1.426368952E-3,-1.225280762E-2,1.432547108E-2
3.424939390E0,-1.176177710E-2,-8.174568415E-3,-5.027770996E-3,1.518029811E-2
3.429951630E0,-6.891708821E-3,-2.007123828E-2,-2.399349213E-2,3.203182669E-2
3.434963817E0,1.936798915E-2,-1.048871875E-2,-1.904392242E-2,2.911706040E-2
3.439976109E0,1.210094988E-2,8.515894413E-3,-1.176071167E-2,1.890152863E-2
3.445040172E0,1.451447606E-4,6.190955639E-3,2.183914185E-4,6.196506559E-3
3.450052411E0,1.199220866E-2,8.531361818E-3,-1.641178131E-2,2.204413230E-2
3.455064651E0,1.186438277E-2,1.307195425E-2,1.935386658E-2,2.619564311E-2
3.460076890E0,4.765201360E-3,-6.076693535E-3,2.156734467E-2,2.290815803E-2
3.465089130E0,-4.755683243E-3,1.065373421E-3,2.382278442E-3,5.424646921E-3
3.470101370E0,-4.745464772E-3,3.396600485E-3,-4.765510559E-3,7.534349451E-3
3.475171890E0,2.497490495E-3,1.009255648E-3,-1.897811890E-2,1.916833463E-2
3.480184130E0,2.601463348E-3,1.051968336E-2,-9.316444397E-3,1.429081823E-2
3.485196370E0,1.733154058E-4,-8.607476950E-3,-2.113342285E-3,8.864813212E-3
3.490208609E0,1.682008803E-2,-1.342558861E-2,-9.225845337E-3,2.341533713E-2
3.495220849E0,1.443220302E-2,-6.222695112E-3,7.478713989E-3,1.740521708E-2
3.500233088E0,-7.046930492E-3,8.202880621E-3,1.217079163E-2,1.628111325E-2
3.505294495E0,2.481173724E-3,3.400564194E-3,-2.356338501E-2,2.393644027E-2
3.510306734E0,1.104921103E-4,-1.466572285E-3,3.862380981E-4,1.520599435E-3
3.515318974E0,1.449365169E-2,-1.099255681E-2,2.413749695E-2,3.022450998E-2
3.520331213E0,-2.179976553E-3,-6.237357855E-3,-4.572868347E-3,8.035425048E-3
3.525343453E0,-9.372778237E-3,1.996243000E-2,-9.284973145E-3,2.392819069E-2
3.530355692E0,7.408484817E-3,5.507439375E-3,1.217079163E-2,1.527565725E-2
3.535431265E0,2.444460988E-4,-1.368397474E-2,1.878738403E-4,1.368744736E-2
3.540443505E0,1.214562356E-2,-4.103660583E-3,9.688377380E-3,1.606925195E-2
3.545455745E0,2.146524005E-2,6.981194019E-4,2.623653412E-2,3.390574617E-2
3.550467984E0,-7.249787450E-5,-1.824340224E-2,-1.911640167E-2,2.642468154E-2
3.555480224E0,-1.193164662E-2,9.301006794E-4,-7.079124451E-3,1.390479346E-2
3.560492463E0,2.441979945E-3,-1.099056005E-2,2.481460571E-3,1.152880405E-2
3.565568245E0,1.669302210E-2,-1.093417406E-2,7.210731506E-3,2.121810072E-2
3.570580484E0,1.425125822E-2,-1.082634926E-2,-1.185321808E-2,2.146641512E-2
3.575592724E0,2.840821445E-2,2.258980274E-2,2.500534058E-3,3.638101849E-2
3.580604963E0,4.438593984E-3,-3.816664219E-3,-7.025718689E-3,9.144876457E-3
3.585617203E0,-7.401682436E-3,-1.337429881E-2,4.909515381E-3,1.605490931E-2
3.590629442E0,1.163488254E-2,-1.420557499E-3,9.618759155E-3,1.516275051E-2
3.595693088E0,6.365902722E-2,8.006066084E-3,-9.469032288E-3,6.485546556E-2
3.600707307E0,1.336555928E-2,8.008211851E-3,3.574752808E-2,3.899558174E-2
3.605721474E0,-4.827654734E-2,-2.767544985E-2,1.169490814E-2,5.686234628E-2
3.610735640E0,-4.832420498E-3,3.349810839E-3,-3.116226196E-2,3.171214422E-2
3.615749859E0,7.159966975E-3,1.278865337E-2,-5.465888977E-2,5.658983136E-2
3.620764026E0,-1.188606024E-2,3.300935030E-3,2.813339233E-3,1.265264706E-2
3.625825692E0,3.215260804E-4,8.623600006E-4,1.941871643E-2,1.944051418E-2
3.630839911E0,7.469478995E-3,1.021784544E-2,-1.162910461E-2,1.718818071E-2
3.635854078E0,9.490681812E-3,1.014962792E-2,1.459693909E-2,2.015337736E-2
3.640868245E0,-2.150285244E-2,1.240560412E-2,-6.905555725E-3,2.576738979E-2
3.645882463E0,2.506136894E-3,1.464232802E-2,-6.849288940E-3,1.635821662E-2
3.650896630E0,1.216416806E-2,2.838373184E-4,2.711296082E-3,1.246590048E-2
3.655955015E0,-1.631924137E-2,-1.163151860E-2,7.438659668E-3,2.137623731E-2
3.660969234E0,-1.368287578E-2,4.636943340E-4,1.213073730E-2,1.829182576E-2
3.665983401E0,-1.616735011E-3,5.331277847E-3,9.658813477E-3,1.115029297E-2
3.670997567E0,1.029844396E-2,5.001425743E-4,-2.605533600E-2,2.802121740E-2
3.676011786E0,-8.825644851E-3,3.054440022E-4,1.453971863E-2,1.701142912E-2
3.681025953E0,-3.931138664E-3,-1.889196038E-2,3.104114532E-2,3.655013983E-2
3.686087932E0,9.771995246E-4,-2.193480730E-3,7.025718689E-3,7.424755869E-3
3.691102151E0,1.059604995E-2,9.563386440E-3,-1.640319824E-4,1.427450669E-2
3.696116317E0,2.488884889E-2,-7.180690765E-3,4.588127136E-3,2.630718589E-2
3.701130484E0,2.238184772E-2,-1.903420687E-2,-7.328987122E-3,3.028138357E-2
3.706144703E0,1.751716807E-2,-4.761397839E-3,9.358406067E-3,2.042307153E-2
3.711158870E0,2.214174531E-2,-5.751848221E-5,-4.976272583E-3,2.269412882E-2
3.716220484E0,7.049441338E-4,9.409338236E-3,-2.156448364E-2,2.353846951E-2
3.721234703E0,8.269399405E-4,-2.406609058E-2,9.493827820E-3,2.588422903E-2
3.726248870E0,2.216894738E-2,-9.491741657E-3,4.667282104E-3,2.456295809E-2
3.731263036E0,3.155160695E-3,-9.447604418E-3,2.363300323E-2,2.564626893E-2
3.736277255E0,8.766613901E-4,-4.704684019E-3,6.805419922E-3,8.319635042E-3
3.741291422E0,-3.909632564E-3,4.852980375E-3,-9.880065918E-3,1.168128194E-2
3.746361682E0,-8.555926383E-3,7.205188274E-3,-2.880096436E-2,3.089683094E-2
3.751375849E0,5.894947797E-3,8.699297905E-5,1.182556152E-2,1.321370057E-2
3.756390067E0,1.062091626E-2,7.281064987E-3,-9.650230408E-3,1.609175927E-2
3.761404234E0,1.768000796E-2,1.105368137E-4,-1.194477081E-2,2.133711437E-2
3.766418453E0,1.280107349E-2,-1.892966032E-2,-9.470939636E-3,2.473657656E-2
3.771432620E0,-6.288915873E-3,2.572745085E-3,-2.266883850E-3,7.162977210E-3
3.776494130E0,3.388598561E-3,2.621054649E-3,2.506256104E-3,4.963249675E-3
3.781508349E0,1.298886538E-2,-6.834477186E-3,-2.263069153E-3,1.485066275E-2
3.786522515E0,1.997478306E-2,4.179775715E-4,7.260322571E-3,2.125744452E-2
3.791536682E0,5.626499653E-3,5.182534456E-3,2.449035645E-3,8.032056855E-3
3.796550901E0,9.533762932E-4,-1.859933138E-2,1.193141937E-2,2.211792988E-2
3.801565067E0,5.714461207E-3,-8.924990892E-3,9.458541870E-3,1.420473666E-2
3.806619703E0,8.306950331E-4,3.148853779E-3,2.838611603E-2,2.857231033E-2
3.811633922E0,-6.229925901E-3,-2.288770676E-2,6.773948669E-3,2.466871456E-2
3.816648088E0,9.695850313E-4,8.149802685E-3,-4.100799561E-4,8.217514497E-3
3.821662255E0,3.306094557E-3,-6.206512451E-3,1.384544373E-2,1.552892044E-2
3.826676474E0,1.269629970E-2,-1.796361804E-2,-7.648468018E-3,2.328919626E-2
3.831690640E0,5.377966911E-3,-1.167982817E-3,-4.577636719E-4,5.522341852E-3
3.836753297E0,1.010541432E-2,-8.267998695E-3,1.617527008E-2,2.078746168E-2
3.841767515E0,1.711991057E-2,-1.282998919E-2,6.542205811E-3,2.237186665E-2
3.846781682E0,1.932335272E-2,2.535396814E-2,8.865356445E-3,3.308791631E-2
3.851795849E0,2.398326807E-2,-5.774050951E-3,-3.087997437E-3,2.486106473E-2
3.856810067E0,9.496191517E-3,-2.006587386E-2,-2.444553375E-2,3.302122147E-2
3.861824234E0,3.804530576E-2,-5.628257990E-3,-9.986877441E-3,3.973487510E-2
3.866884442E0,3.061975166E-2,6.208807230E-3,2.810096741E-2,4.202121902E-2
3.871898661E0,2.325895615E-2,6.069898605E-3,6.484985352E-3,2.489734414E-2
3.876912828E0,1.358244196E-2,3.504902124E-3,6.426811218E-3,1.542954863E-2
3.881926995E0,3.956617787E-2,5.816459656E-3,-7.543563843E-4,3.999853357E-2
3.886941213E0,1.079836860E-2,8.108943701E-3,2.775669098E-2,3.086735535E-2
3.891955380E0,-9.390749037E-4,-8.674740791E-3,2.277278900E-2,2.438714638E-2
3.897018245E0,1.117891073E-2,3.344327211E-3,1.070785522E-2,1.583700518E-2
3.902032463E0,-6.686002016E-4,-6.116807461E-3,-1.788425446E-2,1.891319426E-2
3.907046630E0,-1.495024189E-2,1.077920198E-3,-5.857467651E-3,1.609290440E-2
3.912060797E0,-7.679577917E-3,5.785018206E-3,3.692626953E-3,1.029941000E-2
3.917075015E0,-7.593080401E-3,-3.220334649E-2,2.741813660E-2,4.297050860E-2
3.922089182E0,-2.756226808E-3,-1.523777843E-2,2.244091034E-2,2.726501668E-2
3.927149234E0,6.688319147E-3,-2.232578397E-2,-1.338195801E-2,2.687472870E-2
3.932163453E0,3.035852313E-2,1.103043556E-2,1.048183441E-2,3.395849361E-2
3.937177620E0,3.472179174E-2,8.527725935E-3,-1.336193085E-2,3.816891572E-2
3.942191786E0,3.176172078E-2,1.792421937E-2,-8.502006531E-3,3.744821306E-2
3.947206005E0,4.560936615E-2,1.293745637E-2,2.719879150E-2,5.465680486E-2
3.952220172E0,2.846115083E-2,1.986968517E-2,1.034069061E-2,3.621838452E-2
3.957279338E0,8.261437714E-2,5.602538586E-4,-3.963661194E-2,9.163247351E-2
3.962293557E0,7.449959964E-2,-1.905977726E-3,4.858493805E-2,8.896246007E-2
3.967307724E0,-1.152481884E-2,-1.137441397E-2,7.431221008E-2,7.605592225E-2
3.972321890E0,1.750507392E-2,-2.308753133E-2,2.618503571E-2,3.905275676E-2
3.977336109E0,3.436494246E-2,5.629003048E-3,-2.866744995E-2,4.510496239E-2
3.982350276E0,7.653544843E-2,1.985359192E-2,-8.781814575E-2,1.181688060E-1
3.987413036E0,6.092074886E-2,1.025658846E-2,-4.195213318E-2,7.467607868E-2
3.992427255E0,5.990410224E-2,7.657736540E-3,2.253150940E-2,6.445782582E-2
3.997441422E0,7.515478879E-3,-4.473388195E-3,6.984996796E-2,7.039539508E-2
4.002455588E0,8.383792639E-2,-4.365503788E-3,-1.149654388E-2,8.473503435E-2
4.007469807E0,9.047188610E-2,1.485031843E-2,-3.990173340E-2,9.998921172E-2
4.012483974E0,3.296751902E-2,4.402101040E-4,-1.581382751E-2,3.656676408E-2
4.017552724E0,1.860142685E-2,-6.671279669E-3,-6.179809570E-3,2.070529159E-2
4.022566942E0,3.017108701E-2,-6.596922874E-3,-3.225898743E-2,4.465933444E-2
4.027581109E0,-5.599170923E-3,-2.315285802E-2,2.264785767E-2,3.286838917E-2
4.032595276E0,-5.334414542E-3,-1.116824150E-2,-1.298904419E-3,1.244478804E-2
4.037609495E0,3.752594069E-2,-1.121237874E-2,-3.692531586E-2,5.382743364E-2
4.042623661E0,1.366683654E-2,-4.077255726E-3,1.089096069E-2,1.794490067E-2
4.047682307E0,6.691098213E-3,5.425393581E-3,1.298904419E-3,8.711649873E-3
4.052696526E0,-1.019523740E-1,-8.959174156E-3,8.680725098E-2,1.342015357E-1
4.057710692E0,-7.191532105E-2,-1.124152541E-2,-3.744125366E-2,8.185372790E-2
4.062724859E0,-6.624753773E-2,5.603402853E-3,-5.850410461E-2,8.855994939E-2
4.067739078E0,-1.790862083E-1,-2.287995815E-2,1.800537109E-2,1.814374710E-1
4.072753245E0,-1.414265037E-1,-1.559707522E-2,-1.777648926E-2,1.433901261E-1
4.077812099E0,-1.448252797E-1,-1.544958353E-2,-3.663158417E-2,1.501829692E-1
4.082826317E0,-1.436523944E-1,-2.723327279E-2,-2.682495117E-2,1.486514029E-1
4.087840484E0,-9.048710763E-2,1.465409994E-3,-9.974479675E-3,9.104698962E-2
4.092854651E0,-6.647598743E-2,6.221026182E-3,-2.889728546E-2,7.275170912E-2
4.097868870E0,-1.188681275E-2,3.706544638E-3,-1.678466797E-2,2.089880067E-2
4.102883036E0,1.632425934E-2,5.912184715E-3,1.423168182E-2,2.244941288E-2
4.107945849E0,8.871540427E-3,2.477946877E-2,3.073787689E-2,4.046657112E-2
4.112961630E0,1.114067249E-2,7.826089859E-4,-7.528305054E-3,1.346857221E-2
4.117977411E0,3.007768467E-2,-1.108554006E-2,-9.839057922E-3,3.353152806E-2
4.122993192E0,3.666687757E-3,-1.118442416E-2,-2.164077759E-2,2.463451233E-2
4.128008922E0,-2.500971407E-2,-1.117768884E-2,-2.458572388E-3,2.750401977E-2
4.133024703E0,-1.786147058E-2,1.258370280E-2,9.436607361E-3,2.379981651E-2
4.138076005E0,1.530448347E-2,1.228645444E-2,2.597999573E-2,3.255985803E-2
4.143091786E0,-1.536227763E-3,4.970520735E-3,9.132385254E-3,1.051030602E-2
4.148107567E0,2.225142904E-2,2.518564463E-3,2.568435669E-2,3.407573095E-2
4.153123349E0,3.881964833E-2,-2.392590046E-3,1.833915710E-2,4.300016589E-2
4.158139078E0,2.462604083E-2,1.427304745E-2,1.581287384E-2,3.256084688E-2
4.163154859E0,1.060569845E-2,-1.196029782E-2,1.429557800E-3,1.604908718E-2
4.168209859E0,2.283653058E-2,7.003247738E-3,1.566886902E-2,2.856687005E-2
4.173225640E0,1.347677410E-2,2.262502909E-3,-1.086235046E-3,1.370847424E-2
4.178241422E0,4.039164633E-3,-1.199284196E-2,-2.008056641E-2,2.373546411E-2
4.183257203E0,1.094683446E-2,-1.025795937E-4,-1.754093170E-2,2.067675004E-2
4.188272932E0,5.079170689E-2,9.313464165E-3,-4.352951050E-2,6.753781450E-2
4.193288713E0,1.158564910E-1,1.870408654E-2,-5.505084991E-2,1.296270244E-1
4.198343140E0,1.799016446E-1,3.989355266E-2,-2.609157562E-2,1.861098267E-1
4.203358922E0,1.228910089E-1,2.754577994E-2,7.389068604E-2,1.460164495E-1
4.208374703E0,8.175145090E-2,-1.325756311E-2,1.279077530E-1,1.523793161E-1
4.213390484E0,1.696983129E-1,1.775342226E-2,1.281833649E-2,1.711052634E-1
4.218406213E0,9.542469680E-2,1.767623425E-2,-1.536369324E-3,9.706020012E-2
4.223421995E0,-2.811625600E-2,-3.780156374E-3,1.511001587E-2,3.214227766E-2
4.228492411E0,-1.030513346E-1,-8.481204510E-3,-1.641273499E-3,1.034127757E-1
4.233508192E0,-1.797451377E-1,-3.225159645E-2,7.876396179E-3,1.827854415E-1
4.238523974E0,-4.272877052E-2,-1.306411624E-2,-8.008575439E-2,9.170685373E-2
4.243539755E0,-2.139801160E-2,-1.304101944E-2,-8.654880524E-2,9.010348926E-2
4.248555484E0,-5.101446062E-3,-1.048654318E-2,2.067565918E-3,1.184344412E-2
4.253571265E0,-5.963241309E-2,-2.453058958E-2,7.569599152E-2,9.943670171E-2
4.258609130E0,-4.423958436E-2,-2.673649788E-2,6.556415558E-2,8.349035657E-2
4.263624911E0,2.095740475E-2,1.854687929E-3,-3.873825073E-3,2.139297085E-2
4.268640692E0,4.945548251E-2,-5.700290203E-4,-7.510757446E-2,8.992951365E-2
4.273656474E0,1.084040850E-2,-2.203127742E-2,-4.360198975E-2,5.004023532E-2
4.278672203E0,-1.077518985E-2,-1.000377536E-2,-1.235866547E-2,1.920720828E-2
4.283687984E0,2.464640699E-2,-1.480913162E-2,-9.885787964E-3,3.040533770E-2
4.288748505E0,1.014742255E-2,-1.477244496E-2,1.869964600E-2,2.590119833E-2
4.293764286E0,-6.108593941E-2,-3.384369612E-2,1.378822327E-2,7.118288320E-2
4.298780067E0,2.479854412E-2,-2.765625715E-3,-6.472206116E-2,6.936542133E-2
4.303795849E0,-4.211901873E-2,-7.423758507E-3,2.332687378E-3,4.283182648E-2
4.308811578E0,-1.154421419E-1,-4.055055976E-2,4.507446289E-2,1.303953344E-1
4.313827359E0,-3.147419542E-2,-6.937980652E-3,-2.811431885E-3,3.235219779E-2
4.318871630E0,1.114790514E-2,-2.111852169E-3,-3.604602814E-2,3.778957334E-2
4.323887411E0,1.778402552E-2,-1.405867934E-2,-4.287528992E-2,4.849957231E-2
4.328903192E0,3.140848130E-3,-1.154887676E-2,9.743690491E-3,1.543311329E-2
4.333918974E0,5.307086557E-2,1.231989264E-2,1.441383362E-2,5.635650031E-2
4.338934703E0,6.008180976E-2,2.400854230E-2,3.092193604E-2,7.171052988E-2
4.343950484E0,1.983526163E-2,-8.520483971E-5,2.353668213E-2,3.078019281E-2
4.349007099E0,1.551001519E-2,2.099245787E-3,-1.229572296E-2,1.990357272E-2
4.354022880E0,2.282945253E-2,2.255767584E-3,-2.881526947E-2,3.683194462E-2
4.359038661E0,-3.193127364E-2,-2.340704203E-3,-2.144336700E-2,3.853444071E-2
4.364054442E0,-2.942901850E-2,-1.418152452E-2,-2.260208130E-3,3.274585940E-2
4.369070172E0,1.332808658E-2,-9.294271469E-3,-2.362251282E-2,2.867131818E-2
4.374085953E0,-5.317921564E-2,9.856969118E-3,1.933765411E-2,5.743808565E-2
4.379137932E0,-3.107959405E-2,-1.391053200E-2,9.677886963E-3,3.539923110E-2
4.384153713E0,6.400653720E-2,9.926587343E-3,-8.305072784E-2,1.053223497E-1
4.389169495E0,1.809165627E-2,-6.870985031E-3,-1.594543457E-3,1.941805939E-2
4.394185276E0,-3.630258143E-3,-9.327769279E-3,4.354953766E-2,4.468498947E-2
4.399201005E0,1.061620936E-2,4.916876554E-3,1.705265045E-2,2.068024332E-2
4.404216786E0,4.142617807E-2,4.789382219E-3,-1.159858704E-2,4.328502781E-2
4.409270953E0,4.563467577E-2,7.038384676E-3,-3.050899506E-2,5.534312307E-2
4.414286734E0,8.982714266E-2,-1.680925488E-2,-2.313137054E-2,9.426837705E-2
4.419302515E0,1.751272939E-2,-1.907879114E-2,5.070114136E-2,5.693243098E-2
4.424318297E0,2.719098330E-2,2.612960339E-2,6.215572357E-2,7.270102969E-2
4.429334026E0,4.158709198E-2,1.870000362E-2,4.263210297E-2,6.242333345E-2
4.434349807E0,5.808749795E-2,-2.817630768E-3,-3.374004364E-2,6.723456705E-2
4.439398870E0,2.683346346E-2,-7.526665926E-3,-3.820896149E-2,4.729281340E-2
4.444414599E0,5.428008735E-4,-1.472854614E-2,-7.012367249E-3,1.632170330E-2
4.449430380E0,-3.477271646E-2,4.364609718E-3,1.917743683E-2,3.994953957E-2
4.454446161E0,-3.384280950E-3,-7.583141327E-3,1.335144043E-5,8.304069375E-3
4.459461942E0,5.345945805E-2,-4.791319370E-4,-5.937862396E-2,7.989971343E-2
4.464477724E0,1.187038347E-1,2.810186148E-2,-1.111469269E-1,1.650271322E-1
4.469553609E0,1.971687973E-1,4.678632319E-2,-5.083942413E-2,2.089237701E-1
4.474569338E0,6.910277903E-2,8.354902267E-3,1.229953766E-1,1.413253732E-1
4.479585120E0,2.892025746E-2,-6.052702665E-3,1.385993958E-1,1.417138279E-1
4.484600901E0,5.837883800E-2,-1.796466112E-2,1.154136658E-2,6.216124933E-2
4.489616682E0,7.994133234E-2,-8.241087198E-3,-4.081249237E-2,9.013429796E-2
4.494632463E0,-1.993522048E-2,-1.274761558E-2,-1.671028137E-2,2.896805520E-2
4.499685640E0,-2.088733315E-1,-3.394922614E-2,7.608032227E-2,2.248751521E-1
4.504701370E0,-1.919400990E-1,-4.092997313E-2,2.080821991E-2,1.973556341E-1
4.509717203E0,-5.023148283E-2,-2.613335848E-3,-1.385269165E-1,1.473761785E-1
4.514732932E0,-4.599391669E-2,-2.157673240E-2,-1.088695526E-1,1.201398154E-1
4.519748713E0,-3.936261311E-2,-2.269864082E-3,-2.244281769E-2,4.536791443E-2
4.524764495E0,-9.123258293E-2,-1.638245583E-2,1.107788086E-1,1.444427689E-1
4.529798817E0,-6.581570208E-2,-3.533691168E-2,1.051054001E-1,1.289478542E-1
4.534814547E0,-2.626132220E-2,-4.246175289E-3,2.083778381E-3,2.668387492E-2
4.539830380E0,-5.143729225E-2,5.361765623E-3,-3.593730927E-2,6.297645403E-2
4.544846109E0,-4.160001874E-2,2.959817648E-3,-8.552360535E-2,9.515045534E-2
4.549861890E0,-7.062937319E-2,-6.549149752E-3,-7.293605804E-2,1.017401999E-1
4.554877672E0,-6.383413076E-2,-3.033623099E-2,6.058692932E-3,7.093511769E-2
4.559931109E0,-4.005045444E-2,-8.895814419E-3,6.776428223E-2,7.921598551E-2
4.564946838E0,2.185595222E-2,-8.752375841E-3,6.856918335E-4,2.355327798E-2
4.569962672E0,-9.193252772E-3,3.215819597E-3,2.681255341E-2,2.852666143E-2
4.574978401E0,-5.624737218E-2,-1.357817650E-2,5.509281158E-2,7.989588001E-2
4.579994182E0,-3.240667284E-3,-2.537727356E-2,7.122993469E-3,2.655644882E-2
4.585009963E0,-3.354579210E-3,1.502817869E-2,-4.282951355E-2,4.551336713E-2
4.590064911E0,-5.108101666E-2,7.688969374E-3,1.453590393E-2,5.366267806E-2
4.595080692E0,4.861576110E-2,1.239317656E-2,-5.447769165E-2,7.406012382E-2
4.600096474E0,5.947995931E-2,1.938217878E-2,-2.077007294E-2,6.591608562E-2
4.605112255E0,3.958395123E-2,-1.154053211E-2,1.503753662E-2,4.388850173E-2
4.610127984E0,9.839926660E-2,-1.385447383E-2,2.441310883E-2,1.023247868E-1
4.615143765E0,1.426759511E-1,1.230573654E-2,4.558563232E-2,1.502860874E-1
4.620196265E0,8.712626994E-2,5.146503448E-3,5.471134186E-2,1.030087586E-1
4.625213297E0,2.522272989E-2,-1.868623495E-2,7.563686371E-2,8.189198148E-2
4.630230328E0,7.754758745E-2,7.514178753E-3,-2.239322662E-2,8.106508373E-2
4.635247411E0,4.350288212E-2,-4.460573196E-3,-4.121303558E-2,6.009086260E-2
4.640264390E0,2.665720880E-3,-2.588948607E-2,1.851654053E-2,3.194109939E-2
4.645281422E0,-2.569365129E-2,-9.079247713E-3,2.548885345E-2,3.731324304E-2
4.650325745E0,-5.988504738E-3,9.913623333E-3,-1.510906219E-2,1.903748610E-2
4.655342776E0,-8.593164384E-4,3.981292248E-4,-2.210712433E-2,2.212740106E-2
4.660359807E0,-3.140290454E-2,-1.389345527E-2,-2.918243408E-3,3.446283008E-2
4.665376890E0,-6.180043519E-2,-4.309982061E-3,-1.477146149E-2,6.368724997E-2
4.670393870E0,-2.785558626E-2,-1.138335466E-2,-3.365135193E-2,4.514341520E-2
4.675410901E0,-5.554192886E-2,-2.800381184E-2,3.314399719E-2,7.048151452E-2
4.680473817E0,-3.790632635E-2,-1.598054171E-2,-7.516860962E-3,4.181830328E-2
4.685490849E0,-4.691875726E-2,-6.328046322E-3,-4.308509827E-2,6.401358954E-2
4.690507880E0,-4.191916063E-2,5.568236113E-3,-5.698204041E-2,7.095896145E-2
4.695524911E0,-6.091529503E-2,-1.114237309E-2,-1.850128174E-2,6.463066666E-2
4.700541995E0,-1.334199309E-2,-3.906399012E-3,-1.122093201E-2,1.786555479E-2
4.705558974E0,3.620738536E-2,7.902979851E-4,2.450084686E-2,4.372517379E-2
4.710605120E0,6.179182231E-2,3.390195966E-2,2.666759491E-2,7.535736720E-2
4.715622151E0,4.589136690E-3,-1.635298133E-2,6.682777405E-2,6.895238617E-2
4.720639182E0,-5.414260179E-2,-1.635563374E-2,2.351093292E-2,6.125105754E-2
4.725656213E0,-8.281476796E-3,-9.230971336E-3,-6.458282471E-2,6.576271692E-2
4.730673245E0,-3.944169730E-2,-1.879465580E-2,-7.355308533E-2,8.555082077E-2
4.735690276E0,-2.086549625E-2,-6.899684668E-3,-3.256320953E-2,3.928533056E-2
4.740730797E0,4.273826629E-2,-6.981968880E-3,5.710601807E-3,4.367972376E-2
4.745747828E0,5.380868539E-2,7.294833660E-3,2.704048157E-2,6.066116439E-2
4.750764859E0,8.405242860E-2,7.095307112E-3,1.255607605E-2,8.528076678E-2
4.755781890E0,1.118244603E-1,1.650351286E-2,3.145503998E-2,1.173307096E-1
4.760798922E0,1.181395724E-1,1.405972242E-2,1.219177246E-2,1.195962946E-1
4.765815953E0,4.859116301E-2,-1.924550533E-2,5.010223389E-2,7.239975441E-2
4.770855745E0,7.226978242E-2,6.958991289E-3,4.549026489E-3,7.274642708E-2
4.775872776E0,8.820581436E-2,1.884832978E-2,-3.587150574E-2,9.706848174E-2
4.780889807E0,5.396538228E-2,2.098068595E-2,1.668548584E-2,6.025659387E-2
4.785906838E0,3.927891329E-2,4.090458155E-3,3.554821014E-2,5.313417094E-2
4.790923870E0,3.943417594E-2,8.980751038E-3,4.376411438E-3,4.067998400E-2
4.795940901E0,-7.771268487E-3,-2.797901630E-3,1.860046387E-2,2.035185799E-2
4.800994859E0,3.553473577E-2,2.105128765E-2,-1.955986023E-2,4.569969683E-2
4.806011890E0,-6.648340821E-2,1.889556646E-3,-1.464366913E-2,6.810323808E-2
4.811028922E0,-1.224566847E-1,-2.661556005E-2,3.774166107E-2,1.308757451E-1
4.816045953E0,-8.500425518E-2,-2.875238657E-2,3.030395508E-2,9.471405822E-2
4.821062984E0,-1.139708608E-1,-3.087031841E-2,2.530670166E-2,1.207591107E-1
4.826080015E0,-8.857679367E-2,-1.866558194E-2,-4.141521454E-2,9.954633254E-2
4.831123036E0,-2.088193595E-1,-3.501656651E-2,-6.482028961E-2,2.214347642E-1
4.836140067E0,-2.285939306E-1,-2.283033729E-2,-3.577423096E-2,2.324999032E-1
4.841157099E0,-1.464147121E-1,-3.682532907E-2,-3.310012817E-2,1.545606394E-1
4.846174130E0,-3.662471473E-2,-1.042297482E-2,-1.620006561E-2,4.138176240E-2
4.851191161E0,3.402940184E-2,-3.348112106E-3,-2.082538605E-2,4.003631787E-2
4.856208192E0,2.105483413E-2,-9.793937206E-4,1.260089874E-2,2.455703364E-2
4.861264130E0,-1.520834118E-2,1.557040215E-2,4.337406158E-2,4.852875728E-2
4.866281161E0,-1.016728580E-3,1.049876213E-2,2.460479736E-4,1.055074798E-2
4.871298192E0,4.399359971E-2,-6.408780813E-3,-9.263992310E-3,4.541289289E-2
4.876315224E0,5.753752217E-2,1.731282473E-2,-1.394176483E-2,6.168203275E-2
4.881332255E0,5.655494332E-2,1.470652223E-2,-2.570724487E-2,6.384047188E-2
4.886349286E0,5.506255105E-2,1.692473888E-2,-5.875682831E-2,8.228424021E-2
4.891389026E0,1.008324176E-1,1.432037354E-2,-1.788997650E-2,1.034035821E-1
4.896406109E0,1.344009042E-1,-1.919582486E-2,-3.496170044E-3,1.358098153E-1
4.901423088E0,1.918545961E-1,1.651060581E-2,5.354022980E-2,1.998683126E-1
4.906440120E0,1.783411056E-1,2.594453096E-2,9.110450745E-2,2.019373663E-1
4.911457151E0,1.255447865E-1,-7.667869329E-3,7.846736908E-2,1.482478251E-1
4.916474182E0,5.733913928E-2,-2.835661173E-3,8.019351959E-2,9.862463411E-2
4.921525484E0,1.817098446E-2,1.393836737E-2,-2.498912811E-2,3.389571190E-2
4.926542515E0,2.498470247E-3,1.631897688E-2,-8.891296387E-2,9.043266281E-2
4.931559547E0,-6.788569689E-2,-1.938122511E-2,-1.927566528E-2,7.318231344E-2
4.936576578E0,-9.306467324E-2,-1.202461123E-2,-3.811550140E-2,1.012838394E-1
4.941593609E0,-3.799447045E-2,-2.353549004E-3,-7.818031311E-2,8.695562279E-2
4.946610640E0,-3.083892167E-2,-1.187175512E-2,-1.101589203E-2,3.483285140E-2
4.951652620E0,-4.217290133E-2,-1.671653986E-2,5.321025848E-2,6.992372930E-2
4.956669651E0,-8.610290289E-2,-5.699682236E-2,7.652473450E-2,1.285238602E-1
4.961686682E0,-9.630075842E-2,-2.324846387E-2,2.600574493E-2,1.024237566E-1
4.966703713E0,-7.522817701E-3,-1.364085078E-2,-8.586311340E-2,8.726476860E-2
4.971720745E0,-2.267342061E-2,-2.301350236E-2,-6.852245331E-2,7.575639841E-2
4.976737776E0,-3.574234620E-2,-6.280332804E-3,-8.570671082E-3,3.728825947E-2
4.981791526E0,-5.546509475E-2,-2.790626884E-2,5.325126648E-2,8.179751804E-2
4.986808557E0,1.556750759E-2,-2.554270625E-2,1.478862762E-2,3.336885737E-2
4.991825588E0,9.065381438E-2,1.248645782E-2,-3.285408020E-2,9.722868031E-2
4.996842620E0,5.615444481E-2,-1.388922334E-2,1.492404938E-2,5.974076872E-2
5.001859651E0,1.517811045E-2,-4.307955503E-3,6.468391418E-2,6.658034448E-2
5.006876682E0,2.490017191E-2,-4.205107689E-3,4.276847839E-2,4.966733570E-2
5.011915901E0,8.462514728E-3,1.242172718E-2,-5.099296570E-3,1.587187094E-2
5.016932932E0,1.608744264E-3,-6.722688675E-3,-1.218318939E-2,1.400759454E-2
5.021949963E0,6.587376818E-3,-1.145458221E-2,-3.821277618E-2,4.043287339E-2
5.026966995E0,3.037447110E-2,5.388498306E-3,-4.976749420E-2,5.855294944E-2
5.031984026E0,-5.321189761E-3,-4.039734602E-3,1.954174042E-2,2.065221864E-2
5.037001057E0,2.197675407E-3,5.562752485E-3,2.413272858E-2,2.486287556E-2
5.042049651E0,2.607418597E-2,3.051280975E-3,4.925727844E-3,2.671022808E-2
5.047066682E0,7.800207287E-2,2.679553628E-2,-2.124691010E-2,8.516898100E-2
5.052083713E0,8.926287293E-2,3.614145517E-2,1.931667328E-2,9.822015645E-2
5.057100745E0,6.531026214E-2,1.690387726E-2,6.191921234E-2,9.157052072E-2
5.062117776E0,5.136966705E-2,1.925861835E-2,4.002952576E-2,6.791244368E-2
5.067134807E0,2.783225104E-2,2.143821120E-2,-5.438804626E-3,3.555012930E-2
5.072180328E0,-7.592063397E-3,1.884838939E-2,-5.052757263E-2,5.446041503E-2
5.077197359E0,-8.331413567E-2,-2.637565136E-2,-4.297637939E-2,9.738526261E-2
5.082214390E0,-1.208137646E-1,-5.211436749E-2,-6.874465942E-2,1.484510061E-1
5.087231422E0,-2.316368744E-2,-1.370730996E-2,-5.629825592E-2,6.240144535E-2
5.092248453E0,-1.200252399E-2,-1.120147109E-2,-2.494907379E-2,2.986619862E-2
5.097265484E0,-1.497522369E-2,-1.346811652E-2,7.978057861E-2,8.228358409E-2
5.102315484E0,5.576618016E-2,-8.641481400E-3,2.922439575E-2,6.355003822E-2
5.107332515E0,3.575729579E-2,7.402598858E-4,1.471996307E-2,3.867569650E-2
5.112349547E0,9.421004355E-2,7.771432400E-3,-1.153755188E-2,9.523152089E-2
5.117366578E0,6.179982796E-2,5.950033665E-4,-1.619434357E-2,6.388919728E-2
5.122383609E0,7.521055639E-2,-1.822501421E-3,2.943038940E-3,7.529017719E-2
5.127400640E0,7.689920068E-2,-4.116743803E-3,-8.956909180E-3,7.752845198E-2
5.132457359E0,6.695436686E-2,-8.818864822E-3,3.150177002E-2,7.451859589E-2
5.137475432E0,5.972779542E-2,-1.552402973E-3,2.649307251E-2,6.535826185E-2
5.142493453E0,6.939504296E-2,1.980310678E-2,2.152156830E-2,7.530612809E-2
5.147511526E0,1.752804779E-2,2.920269966E-3,3.797054291E-2,4.192281675E-2
5.152529599E0,-6.468778849E-2,-2.327176929E-2,-5.103111267E-3,6.893567269E-2
5.157547620E0,-9.659203887E-2,-1.526981592E-3,-5.018806458E-2,1.088631961E-1
5.162590953E0,-8.841214329E-2,-8.469641209E-3,-8.539772034E-2,1.232120633E-1
5.167609026E0,-2.406820655E-2,-2.253392339E-2,-1.108160019E-1,1.156167918E-1
5.172627047E0,-5.290026963E-2,-3.901311755E-2,-2.437496185E-2,7.010421266E-2
5.177645120E0,-1.492045447E-2,-5.778306723E-2,2.095794678E-2,6.325139013E-2
5.182663192E0,4.108401015E-3,-7.386592031E-2,4.929161072E-2,8.889722171E-2
5.187681213E0,4.699392989E-2,-1.865252852E-2,4.650402069E-2,6.869476114E-2
5.192710380E0,4.257995635E-2,1.714897156E-2,6.274890900E-2,7.774680372E-2
5.197728453E0,-2.088006586E-2,-2.104100585E-2,4.084873199E-2,5.047098159E-2
5.202746474E0,-2.458173409E-2,1.235371828E-2,-4.625320435E-3,2.789748368E-2
5.207764547E0,-5.025599897E-2,1.701557636E-2,-5.447196960E-2,7.604203274E-2
5.212782620E0,-1.216860265E-1,2.478808165E-3,-9.678363800E-2,1.555014666E-1
5.217800640E0,-1.451613009E-1,2.367705107E-3,-3.184318542E-2,1.486317522E-1
5.222844495E0,-4.006124288E-2,1.191583276E-2,-5.058288574E-2,6.561645054E-2
5.227862567E0,7.366229594E-2,1.183083653E-2,-2.878284454E-2,7.996595948E-2
5.232880588E0,9.420323372E-2,6.996095181E-3,2.134323120E-2,9.684383361E-2
5.237898661E0,2.745591849E-2,3.070831299E-2,1.185646057E-1,1.255165076E-1
5.242916734E0,2.814212814E-2,2.101758122E-2,7.244777679E-2,8.051334336E-2
5.247934755E0,-4.800137132E-3,1.125183702E-2,7.703781128E-3,1.445660390E-2
5.252975640E0,-2.151216567E-2,-1.263433695E-2,-6.600379944E-2,7.056132993E-2
5.257993713E0,-2.424377948E-2,1.356458664E-2,-6.545639038E-2,7.110765005E-2
5.263011734E0,8.448678255E-2,2.999150753E-2,-3.878593445E-2,9.768242248E-2
5.268029807E0,7.906177640E-2,2.965322137E-2,6.130790710E-2,1.043491135E-1
5.273047880E0,5.668615922E-3,1.738888025E-2,7.980060577E-2,8.186967109E-2
5.278065901E0,1.354843006E-2,1.968818903E-2,-6.380081177E-3,2.473641405E-2
5.283109234E0,-6.694301963E-2,3.152266145E-2,-3.007698059E-2,7.987284159E-2
5.288127307E0,-9.930840135E-2,1.232415438E-2,1.056098938E-2,1.006259303E-1
5.293145328E0,-6.731651723E-2,-2.067208290E-3,-2.278518677E-2,7.109818267E-2
5.298163401E0,-3.337309510E-2,-6.784319878E-3,-2.972030640E-2,4.520052085E-2
5.303181474E0,-1.797796786E-1,-3.774982691E-2,5.842018127E-2,1.927659198E-1
5.308199495E0,-1.512462497E-1,-6.588429213E-3,1.517581940E-2,1.521484175E-1
5.313240953E0,-9.227778018E-2,-1.121488214E-2,-3.720664978E-2,1.001264055E-1
5.318259026E0,-6.504359841E-2,-1.812762022E-2,-4.164218903E-2,7.933065118E-2
5.323277047E0,-7.915098965E-2,-2.033504844E-2,-4.842281342E-2,9.499032696E-2
5.328295120E0,-7.982282341E-2,1.127362251E-3,-6.940841675E-2,1.057850764E-1
5.333313192E0,-4.965437949E-2,-1.501113176E-3,-1.895809174E-2,5.317160883E-2
5.338331213E0,4.017217457E-2,3.122627735E-3,3.582859039E-2,5.391884924E-2
5.343378870E0,1.037844121E-1,-1.589012146E-2,6.403732300E-2,1.229816202E-1
5.348396942E0,7.458387315E-2,-8.613407612E-3,3.974914551E-2,8.495257203E-2
5.353414963E0,5.495138466E-4,-1.450210810E-3,3.785133362E-3,4.090514812E-3
5.358433036E0,-6.351857632E-2,3.381192684E-3,6.131172180E-3,6.390331192E-2
5.363451109E0,-4.174278304E-2,-1.563474536E-2,-3.430461884E-2,5.624688500E-2
5.368469130E0,9.196400642E-4,1.993730664E-2,-3.877735138E-2,4.361221061E-2
5.373514338E0,5.057305098E-3,3.106981516E-3,-2.420425415E-2,2.492138816E-2
5.378532411E0,-2.849139273E-4,3.149569035E-3,-2.162742615E-2,2.185741345E-2
5.383550432E0,4.936952889E-2,-1.121774316E-2,1.418209076E-2,5.257679947E-2
5.388568505E0,6.540612876E-2,-2.061054111E-2,9.313583374E-3,6.920620579E-2
5.393586578E0,1.614982486E-1,-6.168603897E-3,-5.253124237E-2,1.699390108E-1
5.398604599E0,3.083760738E-1,5.673497915E-3,-7.348251343E-2,3.170609898E-1
5.403640797E0,1.317352951E-1,-8.662372828E-3,1.266717911E-1,1.829616553E-1
5.408658870E0,7.468928397E-2,5.679219961E-3,1.707544327E-1,1.864613069E-1
5.413676890E0,9.052355587E-2,1.039966941E-2,9.094810486E-2,1.287409223E-1
5.418694963E0,8.241416514E-2,7.954746485E-3,-4.822731018E-3,8.293751468E-2
5.423713036E0,1.061687022E-1,4.591514170E-2,-1.591892242E-1,1.967770380E-1
5.428731057E0,6.387403607E-2,2.169087529E-2,-1.744976044E-1,1.870823361E-1
5.433771057E0,-9.472864866E-2,-9.268522263E-6,2.737998962E-3,9.476820987E-2
5.438789130E0,2.407327667E-2,-4.846751690E-3,5.734825134E-2,6.238457809E-2
5.443807151E0,7.160314918E-2,1.896679401E-2,1.138839722E-1,1.358540002E-1
5.448825224E0,8.145126700E-2,-4.928350449E-3,4.879856110E-2,9.507837346E-2
5.453843297E0,6.028037146E-2,-2.614453435E-2,-2.761840820E-2,7.127437359E-2
5.458861317E0,7.838364691E-3,-2.828425169E-2,-6.007194519E-3,2.995872562E-2
5.463905484E0,2.669831738E-3,-1.620540023E-2,-5.584526062E-2,5.821027514E-2
5.468923557E0,4.438756034E-2,-2.333596349E-2,-3.163146973E-2,5.929057751E-2
5.473941578E0,7.366913557E-2,-3.996089101E-2,-1.237297058E-2,8.471779475E-2
5.478959651E0,1.193369627E-1,8.251965046E-4,-5.146026611E-3,1.194507145E-1
5.483977724E0,1.647816300E-1,-1.558580995E-2,-2.885437012E-2,1.680133261E-1
5.488995745E0,6.082133949E-2,-4.869747162E-2,8.065986633E-2,1.121458564E-1
5.494037411E0,4.656749591E-2,-7.456377149E-2,8.711051941E-2,1.237599704E-1
5.499055484E0,1.012702733E-1,-7.165557146E-2,8.630752563E-4,1.240602035E-1
5.504073505E0,8.120616525E-2,-4.971587658E-2,-7.516384125E-2,1.213083373E-1
5.509091578E0,9.259903803E-3,-3.983694315E-2,2.998542786E-2,5.071344735E-2
5.514109651E0,1.450352184E-2,1.984578371E-2,6.061840057E-2,6.541251994E-2
5.519127672E0,5.353103578E-2,1.974669099E-2,5.299091339E-2,7.786873891E-2
5.524193036E0,-3.804325685E-2,2.440005541E-2,4.067802429E-2,6.080586942E-2
5.529211109E0,-9.328900278E-2,1.006165147E-2,-9.539604187E-3,9.431372603E-2
5.534229130E0,-5.124896765E-2,2.920404077E-2,-8.309268951E-2,1.019005777E-1
5.539247203E0,-4.075310379E-2,1.487728953E-2,-3.963470459E-2,5.876273496E-2
5.544265276E0,5.727965012E-2,6.734195352E-2,-1.553821564E-2,8.976264906E-2
5.549283297E0,1.044899374E-1,1.073374748E-1,5.111217499E-2,1.582780306E-1
5.554300745E0,1.041001678E-1,8.508062363E-2,5.781555176E-2,1.463495660E-1
5.559318817E0,4.468145967E-2,7.948289812E-2,6.208324432E-2,1.103099867E-1
5.564336838E0,-5.199380219E-2,3.602752090E-2,9.306907654E-3,6.393712738E-2
5.569354911E0,-1.217844486E-1,1.679369807E-2,-4.065227509E-2,1.294839283E-1
5.574372984E0,-7.542671263E-2,2.390348911E-2,-9.494495392E-2,1.235925161E-1
5.579391005E0,-4.475383833E-2,3.327834606E-2,-1.060333252E-1,1.198057612E-1
5.584447567E0,-5.081519857E-2,6.942629814E-3,-3.626251221E-2,6.281205542E-2
5.589465588E0,-8.294709027E-2,-9.931564331E-3,2.104187012E-2,8.614880180E-2
5.594483661E0,-1.424253583E-1,-2.671816945E-2,9.687423706E-2,1.743085227E-1
5.599501734E0,5.470067263E-3,-2.188089490E-2,-3.221797943E-2,3.932802304E-2
5.604519755E0,1.223915443E-2,-2.178347111E-2,1.304626465E-3,2.502036300E-2
5.609537828E0,-1.183082461E-1,-1.187312603E-2,5.118751526E-2,1.294525934E-1
5.614590172E0,-1.026462168E-1,-2.606102824E-2,5.551242828E-2,1.195702835E-1
5.619608192E0,5.933432281E-2,9.600013494E-3,-6.848526001E-2,9.112054083E-2
5.624626265E0,1.002483219E-1,4.021324217E-2,-1.011819839E-1,1.480021107E-1
5.629644338E0,4.843686521E-2,1.598560810E-2,1.605510712E-2,5.347369486E-2
5.634662359E0,3.594906628E-2,-7.832348347E-3,4.918098450E-2,6.142027583E-2
5.639680432E0,-1.804820448E-2,-6.233415008E-2,9.153556824E-2,1.122053662E-1
5.644713036E0,1.112760901E-1,-4.506370425E-2,-4.462623596E-2,1.280804693E-1
5.649731942E0,1.289431304E-1,-3.733545542E-2,-1.440219879E-1,1.968821985E-1
5.654750797E0,3.233781457E-2,-2.280539274E-2,3.771686554E-2,5.466609676E-2
5.659769651E0,-6.041713059E-4,-1.557525992E-2,1.823101044E-1,1.829752112E-1
5.664788557E0,5.504066125E-2,8.119285107E-3,8.814144135E-2,1.042320050E-1
5.669807411E0,5.325334147E-2,3.388875723E-2,1.613521576E-2,6.515144996E-2
5.674846526E0,-4.823520780E-2,1.451581717E-2,-5.288887024E-2,7.303818737E-2
5.679865432E0,-2.343942374E-1,-1.662573218E-2,-1.919174194E-2,2.357655540E-1
5.684884286E0,-1.842915565E-1,-2.216517925E-3,-8.791923523E-2,2.042010839E-1
5.689903140E0,-1.870196462E-1,-2.588453889E-2,-5.154991150E-2,1.957134405E-1
5.694922047E0,-6.444515288E-2,5.230069160E-3,-8.200168610E-2,1.044260881E-1
5.699940901E0,-3.580852598E-2,5.204826593E-3,-1.955604553E-2,4.113124931E-2
5.704976057E0,-1.917101890E-1,-4.000788927E-2,1.183891296E-1,2.288436448E-1
5.709994963E0,-1.605013609E-1,-3.722918034E-2,9.365463257E-2,1.895201544E-1
5.715013817E0,-4.718682915E-2,3.430902958E-3,-6.153583527E-2,7.762104716E-2
5.720032672E0,-2.365305647E-2,1.989376545E-2,-9.428691864E-2,9.922324330E-2
5.725051578E0,-8.372202516E-2,-2.316859365E-2,-3.238677979E-3,8.692899552E-2
5.730070432E0,-7.196472585E-2,-6.588697433E-3,2.053356171E-2,7.512629272E-2
5.735113401E0,1.350194216E-3,1.227959991E-2,-2.478218079E-2,2.769057751E-2
5.740132255E0,4.085153714E-2,2.169746161E-2,-2.457809448E-2,5.238044153E-2
5.745151109E0,1.178214401E-1,4.513452947E-2,-1.012897491E-2,1.265765130E-1
5.750169963E0,1.512252986E-1,3.517186642E-2,-1.005172729E-2,1.555865944E-1
5.755188870E0,1.014698595E-1,2.059257030E-2,3.041076660E-2,1.079120061E-1
5.760207724E0,5.761067942E-2,-3.523766994E-3,1.204214096E-1,1.335392197E-1
5.765237620E0,-7.020191848E-2,-8.440077305E-2,1.431722641E-1,1.804164545E-1
5.770256474E0,9.280765057E-2,-2.175873518E-2,-7.181072235E-2,1.193460615E-1
5.775275328E0,9.213802218E-2,-2.605766058E-3,-1.044702530E-1,1.393206335E-1
5.780294182E0,4.339757934E-2,1.886627078E-2,-6.559085846E-2,8.087921105E-2
5.785313088E0,1.845795847E-2,-3.353464603E-2,-8.032798767E-3,3.911258840E-2
5.790331942E0,1.003105342E-1,-4.057130218E-2,1.577949524E-2,1.093491029E-1
5.795362359E0,1.559204012E-1,-1.191681623E-2,2.039146423E-2,1.576990610E-1
5.800381213E0,1.292770505E-1,-2.367714047E-2,8.673954010E-2,1.574703483E-1
5.805400067E0,4.491018131E-3,-3.518396616E-2,1.216611862E-1,1.267261810E-1
5.810418922E0,-6.378439069E-2,-1.333743334E-2,4.939651489E-2,8.177011255E-2
5.815437828E0,-9.684526920E-2,-3.928756714E-2,-3.652477264E-2,1.107094310E-1
5.820456682E0,-1.386729479E-1,-4.844561219E-2,-1.431188583E-1,2.050857660E-1
5.825505276E0,-1.909497380E-1,-4.116129875E-2,-1.300592422E-1,2.346730949E-1
5.830524130E0,-1.577291787E-1,-3.873965144E-2,-3.634548187E-2,1.664339162E-1
5.835542984E0,-2.691763267E-2,-7.624238729E-3,-2.654743195E-2,3.856752659E-2
5.840561838E0,6.603499874E-3,1.135402918E-2,8.294487000E-2,8.397839989E-2
5.845580745E0,9.959140420E-2,1.127454638E-2,6.087684631E-2,1.172670184E-1
5.850599599E0,1.014254838E-1,2.766919136E-2,2.473354340E-2,1.080021346E-1
5.855628140E0,-6.081964821E-3,-5.855202675E-3,1.264953613E-2,1.520803928E-2
5.860646995E0,-2.954863757E-2,2.023610473E-2,2.917098999E-2,4.619056802E-2
5.865665849E0,8.950155973E-2,5.308105052E-2,-4.947090149E-2,1.152193439E-1
5.870684703E0,2.205227129E-2,2.884829044E-2,-1.105213165E-2,3.795623987E-2
5.875703609E0,4.099017009E-2,5.475647748E-2,3.417587280E-2,7.646212233E-2
5.880722463E0,-1.412149221E-1,1.408961415E-2,8.141040802E-2,1.636087589E-1
5.885762932E0,-3.920959309E-2,2.808687091E-2,1.421737671E-2,5.028318116E-2
5.890781786E0,3.465924785E-2,4.677222669E-2,-1.403141022E-1,1.519110000E-1
5.895800640E0,-9.214927256E-2,-3.381311893E-3,-7.975482941E-2,1.219169985E-1
5.900819495E0,-8.966793120E-2,-2.941432595E-2,2.068138123E-2,9.660879870E-2
5.905838401E0,-3.225964680E-2,-1.727354527E-2,4.663848877E-2,5.928076258E-2
5.910857255E0,9.856720269E-2,1.377096772E-2,2.724647522E-2,1.031867405E-1
5.915894547E0,1.401923597E-1,-5.251765251E-4,-2.524185181E-2,1.424476206E-1
5.920913401E0,8.407171071E-2,1.829543710E-2,4.385280609E-2,9.657041038E-2
5.925932255E0,1.194591820E-2,1.800680161E-2,4.823303223E-2,5.285239128E-2
5.930951109E0,7.091681659E-2,2.252396941E-2,-1.393604279E-2,7.570163381E-2
5.935970015E0,5.565372109E-2,1.032230258E-2,-3.283023834E-2,6.543478549E-2
5.940988870E0,1.940239407E-2,1.025530696E-2,-1.117706299E-2,2.462825519E-2
5.946029703E0,-1.391820312E-1,-2.792477608E-2,7.918643951E-2,1.625482178E-1
5.951048557E0,-1.441507936E-1,-2.529847622E-2,-3.074455261E-2,1.495482922E-1
5.956067411E0,-3.360786662E-2,-2.501815557E-2,-1.373853683E-1,1.436319472E-1
5.961086265E0,3.438401967E-2,-1.523822546E-2,-1.338672638E-1,1.390500221E-1
5.966105172E0,-5.027240515E-2,-2.686834335E-2,5.966567993E-2,8.251797353E-2
5.971124026E0,-1.187128946E-2,1.602748036E-2,1.114273071E-1,1.131982880E-1
5.976159911E0,7.940258086E-2,1.115998626E-2,9.624958038E-2,1.252728896E-1
5.981178765E0,1.340169013E-1,6.333380938E-3,-3.520488739E-2,1.387084195E-1
5.986197620E0,4.285251722E-2,-1.027870178E-2,-5.628871918E-2,7.148713065E-2
5.991216474E0,-1.634736955E-1,-1.952335238E-2,5.108737946E-2,1.723796123E-1
5.996235380E0,-9.483715892E-2,-3.359851241E-2,1.503276825E-2,1.017296951E-1
6.001254234E0,1.500369310E-1,2.278476954E-3,-1.727638245E-1,2.288309664E-1
6.006291161E0,2.041471899E-1,1.890560985E-2,-1.000633240E-1,2.281362882E-1
6.011310015E0,1.062458456E-1,1.628580689E-2,8.368015289E-2,1.362195845E-1
6.016328870E0,9.101826698E-2,3.269228339E-2,1.162385941E-1,1.512101884E-1
6.021347724E0,6.032819673E-2,1.084950566E-2,9.863853455E-2,1.161325260E-1
6.026366630E0,9.181237221E-2,1.774734259E-2,7.545471191E-3,9.381585151E-2
6.031385484E0,7.019310445E-2,4.607228935E-2,-4.715442657E-2,9.629780736E-2
6.036420953E0,2.948920615E-2,5.045799911E-2,-6.814098358E-2,8.977091175E-2
6.041439807E0,-4.372263700E-2,3.332388401E-2,4.645252228E-2,7.197212695E-2
6.046458661E0,-1.108976454E-1,1.173746586E-2,7.933044434E-2,1.368553077E-1
6.051477515E0,-1.417237818E-1,-1.436796784E-2,2.660751343E-3,1.424750800E-1
6.056496422E0,-1.538144946E-1,-3.075268865E-2,-6.861972809E-2,1.712112546E-1
6.061515276E0,-1.499463320E-1,-1.849550009E-2,-1.179294586E-1,1.916594459E-1
6.066565120E0,-1.114710271E-1,-1.605072618E-2,-9.082221985E-2,1.446792705E-1
6.071583974E0,-1.163829491E-1,-3.030651808E-2,3.107833862E-2,1.242148904E-1
6.076602828E0,2.640742809E-3,-2.068856359E-2,6.882190704E-2,7.191276017E-2
6.081621682E0,9.538909420E-3,-2.545556426E-2,8.724594116E-2,9.138288020E-2
6.086640588E0,1.231672764E-1,1.500535011E-2,9.937286377E-4,1.240819326E-1
6.091659442E0,1.399957538E-1,3.617659211E-2,-7.978916168E-2,1.651480161E-1
6.096692932E0,8.531340957E-2,1.435872912E-2,2.776622772E-2,9.085986108E-2
6.101711786E0,1.333409399E-1,4.018190503E-2,1.802253723E-2,1.404250818E-1
6.106730640E0,1.406835765E-1,2.060300112E-2,3.924179077E-2,1.475000694E-1
6.111749495E0,1.508067995E-1,1.291096210E-3,2.703189850E-2,1.532157996E-1
6.116768401E0,-1.137021743E-2,-2.953010798E-2,3.631210327E-2,4.816511150E-2
6.121787255E0,-1.022107601E-1,-3.385981917E-2,7.640457153E-2,1.320272146E-1
6.126823922E0,-8.285394311E-2,-3.097409010E-2,-1.211452484E-2,8.928007537E-2
6.131842776E0,-2.087763101E-1,-4.954540730E-2,-3.575897217E-2,2.175339034E-1
6.136861630E0,-2.086264789E-1,-4.663434625E-2,-6.396007538E-2,2.231382110E-1
6.141880484E0,-2.280479223E-1,-2.959895134E-2,-8.788108826E-3,2.301286241E-1
6.146899390E0,-1.975221634E-1,-3.888878226E-2,-1.346683502E-2,2.017639662E-1
6.151918245E0,-1.078118980E-1,-3.859874606E-2,-6.228446960E-3,1.146824402E-1
6.156953922E0,-1.889929175E-2,-2.638161182E-2,-3.468132019E-2,4.749701718E-2
6.161973401E0,4.973515868E-3,3.936886787E-5,-1.538562775E-2,1.616956868E-2
6.166992880E0,-2.130657434E-3,-9.496867657E-3,2.987670898E-2,3.142209312E-2
6.172012411E0,2.398097888E-2,-9.451955557E-3,2.487659454E-2,3.582278280E-2
6.177031890E0,4.475706816E-2,-2.332299948E-3,3.284454346E-3,4.493798408E-2
6.182051370E0,8.358466625E-2,7.155448198E-3,-6.801605225E-2,1.079989826E-1
6.187086682E0,9.806898236E-2,9.333074093E-3,-3.657817841E-2,1.050837509E-1
6.192106161E0,-1.031268761E-2,2.042949200E-3,1.157560349E-1,1.162324601E-1
6.197125640E0,-2.985764295E-3,-7.665902376E-3,7.202625275E-2,7.249456485E-2
6.202145172E0,-3.134841099E-2,-1.243945956E-2,-2.359771729E-2,4.116206126E-2
6.207164651E0,-4.047039896E-2,-3.628149629E-2,-2.815628052E-2,6.121255016E-2
6.212184130E0,-5.860270187E-2,2.569848299E-2,5.759716034E-2,8.609367906E-2
6.217219286E0,-9.987130761E-2,-5.431681871E-3,2.386283875E-2,1.028261461E-1
6.222238765E0,-8.874370903E-2,-1.497459412E-2,-6.185436249E-2,1.092046085E-1
6.227258245E0,-1.376660764E-1,-4.101520777E-2,-8.034324646E-2,1.645880710E-1
6.232277776E0,-1.627831757E-1,-4.525205493E-2,-6.304073334E-2,1.803337041E-1
6.237297255E0,-8.073523641E-2,-2.099987864E-2,-7.875442505E-3,8.379257661E-2
6.242316734E0,4.839501530E-2,-8.826732635E-3,6.447792053E-3,4.961413848E-2
6.247349651E0,8.860385418E-2,-3.932923079E-3,1.352310181E-2,8.971613646E-2
6.252369130E0,2.410775051E-2,5.567312241E-3,4.191875458E-2,4.867607816E-2
6.257388609E0,-3.029522300E-2,1.493611932E-2,1.543807983E-2,3.713788505E-2
6.262408140E0,-5.954518914E-3,-1.610550284E-2,3.433227539E-3,1.751087002E-2
6.267427620E0,1.306691021E-2,-2.318483591E-2,-2.748012543E-2,3.825490886E-2
6.272447099E0,1.725927927E-2,7.855653763E-3,-5.101013184E-2,5.442083762E-2
6.277493140E0,-1.923255250E-2,1.493445039E-2,-3.871059418E-2,4.573225323E-2
6.282512620E0,-3.181248158E-2,-1.848271489E-2,-2.176475525E-2,4.274750642E-2
6.287532099E0,1.029935107E-2,-6.486415863E-3,1.166915894E-2,1.686177610E-2
6.292551630E0,9.453434497E-3,2.982825041E-3,1.869201660E-2,2.115788632E-2
6.297571109E0,5.406160653E-2,3.915727139E-4,3.278160095E-2,6.322534294E-2
6.302590588E0,5.590369180E-2,9.803265333E-3,1.350116730E-2,5.834045154E-2
6.307623974E0,3.655730560E-2,2.364814281E-4,2.764320374E-2,4.583273098E-2
6.312643453E0,1.732740924E-2,-4.493686557E-2,-1.534843445E-2,5.054834753E-2
6.317662932E0,1.389739513E-1,-4.444304109E-2,-1.506299973E-1,2.097101312E-1
6.322682463E0,5.270907283E-1,-1.327890158E-2,-3.774490356E-1,6.484356094E-1
6.327701942E0,2.893915474E-1,-8.700329065E-2,2.239036560E-2,3.030154596E-1
6.332721422E0,1.423813105E-1,-1.599584818E-1,3.714017868E-1,4.287172037E-1
6.337749182E0,2.351662964E-1,-1.278348267E-1,3.778095245E-1,4.630172423E-1
6.342768661E0,2.820051014E-1,-5.797025561E-2,2.155046463E-1,3.596243601E-1
6.347788140E0,2.859988809E-1,-7.535934448E-3,1.417350769E-2,2.864490155E-1
6.352807672E0,2.616164461E-2,3.767555952E-2,4.494667053E-2,6.421902075E-2
6.357827151E0,-1.820980608E-1,3.985470533E-2,-4.330921173E-2,1.913734285E-1
6.362846630E0,-3.372934759E-1,4.428644478E-2,-1.023273468E-1,3.552450759E-1
6.367881213E0,-2.572617829E-1,5.807860196E-2,-1.893672943E-1,3.246794128E-1
6.372900692E0,-2.565627694E-1,9.788793325E-2,-1.307754517E-1,3.041524632E-1
6.377920172E0,-2.504505515E-1,8.304090798E-2,-1.394271851E-3,2.638621139E-1
6.382939703E0,-1.679715514E-1,7.797795534E-2,1.051616669E-2,1.854874480E-1
6.387959182E0,-2.381653637E-1,3.742858768E-2,1.995468140E-2,2.419128540E-1
6.392978661E0,-2.278375477E-1,1.656383276E-3,-6.334400177E-2,2.364849980E-1
6.398012984E0,-1.671043485E-1,-2.689883113E-2,-1.079559326E-1,2.007533158E-1
6.403032463E0,-1.109095812E-1,-5.769637227E-2,-1.332035065E-1,1.826827324E-1
6.408051942E0,-4.382327572E-2,9.263455868E-3,-2.283477783E-2,5.027641781E-2
6.413071474E0,6.370559335E-2,1.137101650E-2,9.611511230E-2,1.158698298E-1
6.418090953E0,1.281471550E-1,1.098203659E-2,1.047992706E-1,1.659071596E-1
6.423110432E0,9.718141705E-2,1.049304008E-2,2.551460266E-2,1.010214168E-1
6.428147099E0,9.614031762E-3,1.243412495E-2,1.103305817E-2,1.920326645E-2
6.433166578E0,-4.385033995E-2,2.429306507E-3,-5.705833435E-3,4.428668399E-2
6.438186057E0,-1.409069076E-2,-2.532929182E-3,-3.655242920E-2,3.925612534E-2
6.443205588E0,3.432437405E-2,2.110412717E-2,-4.576110840E-2,6.097233700E-2
6.448225067E0,2.331141196E-2,6.587594748E-3,-9.754180908E-3,2.611440938E-2
6.453271422E0,2.942890674E-2,1.746207476E-3,2.357959747E-2,3.775059217E-2
6.458328297E0,4.567651823E-2,6.656646729E-3,7.089805603E-2,8.460017501E-2
6.463347776E0,7.434762269E-2,-1.223108172E-2,7.981777191E-2,1.097635872E-1
6.468335640E0,8.206802607E-2,-2.456009388E-3,7.678604126E-2,1.124156974E-1
6.473385276E0,5.684620887E-2,2.149313688E-2,8.090782166E-2,1.011905233E-1
6.478404755E0,3.446062654E-2,2.143430710E-2,4.698753357E-2,6.208697620E-2
6.483424234E0,7.406610996E-3,4.799187183E-3,1.097488403E-2,1.408325827E-2
6.488443713E0,-3.884668276E-2,-4.622012377E-3,-2.949047089E-2,4.899097501E-2
6.493463192E0,-2.341087908E-2,9.737521410E-3,-5.537033081E-2,6.089960687E-2
6.498482724E0,-1.090122014E-2,1.907131076E-2,-6.441116333E-2,6.805401866E-2
6.503503192E0,1.064095274E-2,2.605599165E-2,-6.149768829E-2,6.763216869E-2
6.508522672E0,1.970856637E-2,9.279340506E-3,7.781982422E-4,2.179769118E-2
6.513542151E0,1.191440597E-2,9.167522192E-3,5.518913269E-3,1.601421045E-2
6.518561682E0,4.198133573E-2,-5.351811647E-3,7.133483887E-4,4.232709893E-2
6.523581161E0,8.801217377E-2,1.473456621E-3,1.256942749E-2,8.891740164E-2
6.528600640E0,1.001420021E-1,2.972558141E-2,-1.843070984E-2,1.060741337E-1
6.533623401E0,2.227233499E-1,5.061601102E-2,-8.956050873E-2,2.453339681E-1
6.538642880E0,4.543180764E-1,9.519237280E-2,-1.672239304E-1,4.933866083E-1
6.543662359E0,3.474886417E-1,5.842056870E-2,1.025857925E-1,3.669947736E-1
6.548681890E0,2.230797857E-1,2.438235283E-2,3.131446838E-1,3.852514542E-1
6.553701370E0,2.566038966E-1,2.419769764E-2,2.440252304E-1,3.549357708E-1
6.558720849E0,2.950056791E-1,1.218971610E-2,-3.831386566E-2,2.977329209E-1
6.563759338E0,1.443350017E-1,-6.740331650E-3,-1.353836060E-1,1.980069331E-1
6.568778817E0,-4.624526203E-2,5.132853985E-4,-3.923034668E-2,6.064575684E-2
6.573798297E0,-1.848742515E-1,4.091145098E-2,6.562328339E-2,2.003962350E-1
6.578817828E0,-1.365865469E-1,2.385619283E-2,8.408164978E-2,1.621564879E-1
6.583837307E0,-7.186738402E-2,7.047593594E-3,2.618789673E-3,7.225958428E-2
6.588856786E0,-1.336444914E-1,2.136543393E-2,-4.728031158E-2,1.433623372E-1
6.593887515E0,-1.452771872E-1,1.909202337E-2,-6.587791443E-2,1.606544929E-1
6.598906995E0,-1.996251047E-1,-4.022806883E-2,-1.068019867E-2,2.039179898E-1
6.603926474E0,-2.298657745E-1,-3.729000688E-2,6.049156189E-3,2.329493747E-1
6.608946005E0,-1.772855222E-1,-3.205221891E-2,-4.625415802E-2,1.860025491E-1
6.613965484E0,-1.685255170E-1,-5.076947808E-2,-2.686309814E-2,1.780449826E-1
6.618984963E0,-7.995251566E-2,-3.602138162E-2,-6.464862823E-2,1.089467293E-1
6.624025953E0,-9.494598210E-2,-2.867940068E-2,-7.124519348E-2,1.221193070E-1
6.629045432E0,-2.449549735E-2,-4.925638437E-3,-1.774787903E-3,2.504877594E-2
6.634064963E0,1.458837837E-2,-2.749562263E-3,4.098701477E-2,4.359261699E-2
6.639084442E0,5.344749242E-2,4.055738449E-3,6.676006317E-2,8.561535782E-2
6.644103922E0,2.810314298E-2,3.573626280E-3,-5.079269409E-3,2.878118183E-2
6.649123401E0,-2.041996643E-2,-2.282768488E-2,-7.422447205E-3,3.151461484E-2
6.654148453E0,-3.496531770E-2,-2.984943986E-2,-2.374649048E-4,4.597411110E-2
6.659167932E0,2.410124615E-2,6.050437689E-3,-7.150363922E-2,7.569840344E-2
6.664187411E0,5.860837549E-2,8.393585682E-3,-4.240322113E-2,7.282463265E-2
6.669206942E0,1.021192074E-1,3.642857075E-3,-1.667976379E-3,1.021977743E-1
6.674226422E0,1.238846332E-1,1.313322783E-2,2.447414398E-2,1.269601029E-1
6.679245901E0,6.320849806E-2,-1.314067841E-2,1.169137955E-1,1.335545852E-1
6.684282151E0,1.441341639E-1,8.419156075E-3,7.793521881E-2,1.640714409E-1
6.689301630E0,1.961917132E-1,-2.013954520E-2,-5.854606628E-3,1.973095690E-1
6.694321161E0,1.525264978E-1,-5.699843168E-3,3.699302673E-3,1.526777836E-1
6.699340640E0,1.444942951E-1,3.868371248E-3,-2.721118927E-2,1.470850585E-1
6.704360120E0,6.297847256E-3,-5.321091413E-2,6.803703308E-2,8.660313005E-2
6.709379599E0,7.347671315E-3,-3.844457865E-2,5.711555481E-3,3.955497146E-2
6.714413349E0,4.154361039E-2,7.237493992E-3,-7.271957397E-2,8.406181846E-2
6.719432828E0,-1.977626607E-2,-3.303322196E-2,-1.509284973E-2,4.135321711E-2
6.724452307E0,-9.726591408E-2,-4.466977715E-2,2.304267883E-2,1.094852140E-1
6.729471838E0,-2.140720189E-1,-4.670783877E-2,2.285385132E-2,2.202969586E-1
6.734491317E0,-2.136548460E-1,-7.016125321E-2,-8.218765259E-3,2.250300930E-1
6.739510797E0,-1.594845355E-1,-2.922812104E-2,-6.753921509E-2,1.756449421E-1
6.744563036E0,-1.206474751E-1,-1.703792810E-2,-8.122920990E-2,1.464386861E-1
6.749582515E0,-1.747767180E-1,-9.752810001E-3,-6.913185120E-3,1.751850753E-1
6.754601995E0,-7.657492161E-2,-7.435590029E-3,-3.299236298E-2,8.371082745E-2
6.759621526E0,-3.429663554E-2,-3.596770763E-2,-1.372051239E-2,5.155761498E-2
6.764641005E0,4.739429429E-2,-4.763394594E-2,-7.775497437E-2,1.027669596E-1
6.769660484E0,1.087781042E-1,-6.617376208E-2,-6.286048889E-2,1.419967739E-1
6.774690120E0,1.293749064E-1,-8.693546057E-2,6.547927856E-3,1.560080641E-1
6.779709599E0,2.498447150E-1,-1.219340265E-1,6.587314606E-2,2.857088725E-1
6.784729078E0,2.720266581E-1,-1.399087012E-1,6.769466400E-2,3.132978054E-1
6.789748609E0,2.630470395E-1,-1.412089765E-1,-1.364517212E-2,2.988643685E-1
6.794768088E0,2.044259608E-1,-1.804032624E-1,-1.115894318E-2,2.728732902E-1
6.799787567E0,1.751825958E-1,-1.861175895E-1,3.881549835E-2,2.585253216E-1
6.804826630E0,1.853959262E-1,-1.894611418E-1,1.287574768E-1,2.946958798E-1
6.809846109E0,1.806105226E-1,-9.759843349E-2,1.823234558E-1,2.745677651E-1
6.814865588E0,2.107301056E-1,3.166323900E-2,1.784372330E-1,2.779380943E-1
6.819885120E0,8.009790629E-2,5.036474764E-2,1.104402542E-1,1.454280996E-1
6.824904599E0,-5.694082752E-2,6.653428078E-2,-3.300666809E-2,9.358690344E-2
6.829924078E0,-1.441996396E-1,7.786908746E-2,-1.657562256E-1,2.330928080E-1
6.834954390E0,-2.479345202E-1,9.628792107E-2,-7.409763336E-2,2.761038742E-1
6.839973870E0,-2.055439651E-1,1.384641230E-1,-2.595615387E-2,2.491873931E-1
6.844993349E0,-1.721879989E-1,1.780696511E-1,2.891921997E-2,2.493869060E-1
6.850012880E0,-2.239154130E-1,1.746905148E-1,8.572101593E-2,2.966529634E-1
6.855032359E0,-2.537447512E-1,1.832191348E-1,-7.608413696E-3,3.130711390E-1
6.860051838E0,-2.041784674E-1,1.606919467E-1,-1.666831970E-1,3.086973218E-1
6.865054078E0,-3.089392483E-1,1.071593165E-1,-1.391582489E-1,3.553752897E-1
6.870073557E0,-3.454439640E-1,4.694665968E-2,-1.427536011E-1,3.767148945E-1
6.875093088E0,-2.687605917E-1,3.696587682E-2,-9.881877899E-2,2.887280430E-1
6.880112567E0,-1.220246330E-1,5.533099174E-3,-5.288314819E-2,1.331061742E-1
6.885132047E0,-8.341965079E-2,-3.730589151E-2,9.305953979E-3,9.185406066E-2
6.890151526E0,-4.002306983E-2,-3.232887387E-2,4.009532928E-2,6.522758339E-2
6.895209599E0,4.063506052E-2,-3.795892000E-3,4.686641693E-2,6.214561912E-2
6.900229078E0,8.707307279E-2,2.424117923E-2,4.407215118E-2,1.005569952E-1
6.905248609E0,1.235148460E-1,4.724176228E-2,4.367446899E-2,1.392665090E-1
6.910268088E0,1.953319013E-1,7.242675126E-2,-6.605148315E-3,2.084317969E-1
6.915287567E0,1.744778901E-1,3.568935394E-2,1.955890656E-2,1.791614215E-1
6.920307047E0,2.376157194E-1,3.974604607E-2,4.075908661E-2,2.443405031E-1
6.925337307E0,2.769307196E-1,7.258731127E-2,-2.847766876E-2,2.876986598E-1
6.930356786E0,3.048723340E-1,6.967787445E-2,1.927089691E-2,3.133265289E-1
6.935376265E0,2.742278576E-1,5.475907028E-2,4.761409760E-2,2.836663109E-1
6.940395797E0,2.232892662E-1,5.917674303E-2,8.523178101E-2,2.462203075E-1
6.945415276E0,2.279310375E-1,4.212580621E-2,6.077194214E-2,2.396254794E-1
6.950434755E0,2.111039162E-1,3.466700017E-2,8.007049561E-3,2.140812396E-1
6.955479755E0,2.179138660E-1,1.244425774E-3,-1.581001282E-2,2.184901785E-1
6.960499234E0,7.546579838E-2,-3.443157673E-2,7.221889496E-2,1.099826759E-1
6.965518713E0,1.121622175E-1,-2.457094193E-2,-1.152133942E-2,1.153985939E-1
6.970538245E0,1.571710706E-1,-2.419057488E-2,-1.040649414E-1,1.900458928E-1
6.975557724E0,4.692835361E-2,-4.545339942E-2,-2.718162537E-2,7.076102493E-2
6.980577203E0,-7.865014672E-2,-7.831338048E-2,6.303787231E-3,1.111691004E-1
6.985604130E0,-1.172854081E-1,-1.535557210E-1,4.901599884E-2,1.993434086E-1
6.990624078E0,-1.555897892E-1,-1.996653676E-1,1.102447510E-3,2.531316987E-1
6.995644026E0,-2.604969032E-2,-1.053385139E-1,-1.438150406E-1,1.801598034E-1
7.000663974E0,-2.468678728E-2,-6.178808212E-2,-8.560943604E-2,1.084259199E-1
7.005683922E0,-7.765606791E-2,-2.820703387E-2,9.088611603E-2,1.228266572E-1
7.010703870E0,-1.573922783E-1,2.399456501E-2,2.326536179E-1,2.819144805E-1
7.015729338E0,-1.523336917E-1,9.089827538E-3,1.048021317E-1,1.851260797E-1
7.020749286E0,-1.732920408E-1,-7.961839437E-3,-5.523777008E-2,1.820569514E-1
7.025769234E0,-2.564652860E-1,8.854269981E-3,-1.830501556E-1,3.152145309E-1
7.030789182E0,-3.701854646E-1,-1.717808843E-2,-1.221294403E-1,3.901896528E-1
7.035809130E0,-2.906923890E-1,-2.151015401E-2,-3.795909882E-2,2.939483712E-1
7.040829078E0,-2.144482881E-1,-2.095070481E-2,3.776550293E-4,2.154695870E-1
7.045871161E0,-1.462233961E-1,-2.773016691E-2,2.175903320E-2,1.504117656E-1
7.050891109E0,-6.002874672E-2,-1.352578402E-3,-4.731464386E-2,7.644576787E-2
7.055911057E0,-1.194081679E-1,-1.568287611E-2,5.522251129E-2,1.324907126E-1
7.060931005E0,-2.150578797E-2,-1.780837774E-2,-1.412773132E-2,3.129265132E-2
7.065950953E0,7.046577334E-2,-2.002009749E-2,-2.114009857E-2,7.624390654E-2
7.070970901E0,5.451334268E-2,-3.181970119E-2,9.911537170E-3,6.389394716E-2
7.075992099E0,5.305535719E-2,-5.793079734E-2,1.931953430E-2,8.089556609E-2
7.081012047E0,6.090397015E-2,-6.481984258E-2,1.420974731E-4,8.894338516E-2
7.086031995E0,9.497559071E-2,-3.823813796E-2,1.913833618E-2,1.041575438E-1
7.091051942E0,1.269045472E-1,-2.323359251E-3,3.322887421E-2,1.312033543E-1
7.096071890E0,5.482359976E-2,4.629790783E-3,7.570743561E-2,9.358780828E-2
7.101091838E0,1.226876676E-2,1.870322227E-2,7.745075226E-2,8.061607896E-2
7.106123922E0,-8.603625000E-3,1.856231689E-2,-1.346206665E-2,2.449100264E-2
7.111143870E0,5.759079009E-3,-6.339251995E-4,-6.086254120E-2,6.113769519E-2
7.116163817E0,-2.270711586E-2,3.977039456E-2,1.410484314E-3,4.581797530E-2
7.121183765E0,6.388749927E-3,3.475475311E-2,1.402854919E-3,3.536491187E-2
7.126203713E0,1.063477173E-1,2.978143096E-2,-2.948760986E-2,1.143078727E-1
7.131223661E0,9.402529895E-2,4.628218710E-2,-1.023292542E-2,1.052972481E-1
7.136255953E0,4.917606339E-2,5.551891029E-2,5.875015259E-2,9.461614576E-2
7.141275901E0,1.234149933E-2,5.280105770E-2,7.964897156E-2,9.635467280E-2
7.146295849E0,5.404467136E-2,3.828093410E-2,6.036758423E-4,6.623156983E-2
7.151315797E0,6.616137922E-2,2.615395188E-2,-4.690742493E-2,8.521539657E-2
7.156335745E0,6.763201952E-2,2.832961082E-2,-7.740020752E-2,1.066182397E-1
7.161355692E0,1.166011021E-2,4.463653266E-2,-1.262092590E-2,4.782955142E-2
7.166387776E0,-8.138525486E-2,6.169795990E-3,6.349658966E-2,1.034091050E-1
7.171407724E0,4.716498032E-2,-1.297163963E-2,-3.443336487E-2,5.982019241E-2
7.176427672E0,2.962918207E-2,1.545351744E-2,-4.128074646E-2,5.311120089E-2
7.181447620E0,-3.986479715E-2,-2.276951075E-2,2.082443237E-2,5.041140401E-2
7.186467567E0,4.289079085E-2,-6.036698818E-3,1.114368439E-2,4.472408047E-2
7.191487515E0,5.317070335E-2,-2.982750535E-2,-3.209114075E-3,6.104999741E-2
7.196530953E0,7.962681353E-2,-1.263707876E-3,-3.645038605E-2,8.758228721E-2
7.201550901E0,7.276844978E-2,-1.807233691E-2,2.798271179E-2,8.003054920E-2
7.206570849E0,1.187489256E-1,-3.938806057E-2,1.824283600E-2,1.264338867E-1
7.211590797E0,1.767958105E-1,-4.379346967E-2,-2.704429626E-2,1.841358752E-1
7.216610745E0,4.959449917E-2,-8.126437664E-2,3.257465363E-2,1.006211773E-1
7.221630692E0,3.304897249E-2,-8.754178882E-2,2.755832672E-2,9.754619800E-2
7.226655432E0,1.160516292E-1,-7.238698006E-2,-2.730178833E-2,1.394748836E-1
7.231675380E0,1.053602174E-1,-8.829319477E-2,-2.707099915E-2,1.401046132E-1
7.236695328E0,-9.185593575E-2,-1.185289919E-1,1.394405365E-1,2.047688894E-1
7.241715276E0,-1.316145957E-1,-2.493315935E-2,1.834173203E-1,2.271254666E-1
7.246735224E0,2.183889970E-2,8.466766775E-2,4.411888123E-2,9.793889515E-2
7.251755172E0,-5.404407904E-2,8.165334165E-2,-3.463077545E-2,1.038620301E-1
7.256789807E0,-2.341281474E-1,4.039531946E-2,-4.859256744E-2,2.425056882E-1
7.261809755E0,-2.762833834E-1,6.711363792E-3,-1.455841064E-1,3.123656229E-1
7.266829703E0,-2.669160068E-1,3.280010819E-2,-1.728773117E-1,3.196976176E-1
7.271849651E0,-2.622218728E-1,7.065299153E-2,-4.315376282E-2,2.749807321E-1
7.276869599E0,-1.878474951E-1,4.415521026E-2,4.511070251E-2,1.981699762E-1
7.281889547E0,-9.468484670E-2,3.440487385E-2,5.899810791E-2,1.167462731E-1
7.286919026E0,-1.212903559E-1,4.136629403E-2,2.288246155E-2,1.301772936E-1
7.291938974E0,-1.653983742E-1,1.971134543E-2,-4.857254028E-2,1.735063428E-1
7.296958922E0,-1.772315055E-1,-1.374506950E-2,-8.618545532E-2,1.975547170E-1
7.301978870E0,-1.473408639E-1,-1.867780089E-2,-8.548831940E-2,1.713664004E-1
7.306998817E0,-5.862411857E-2,-1.644253731E-2,-3.253650665E-2,6.903454625E-2
7.312018765E0,7.495188713E-2,7.206737995E-3,3.660583496E-2,8.372400856E-2
7.317054651E0,1.227193177E-1,2.601185441E-2,9.567832947E-2,1.577687872E-1
7.322074599E0,1.162327081E-1,-2.849638462E-3,9.012222290E-2,1.471060092E-1
7.327094547E0,5.098660663E-2,-1.742586493E-2,5.372810364E-2,7.609207544E-2
7.332114495E0,5.392506719E-3,-5.541741848E-3,1.014709473E-3,7.798696477E-3
7.337134442E0,2.838578075E-3,-7.279515266E-4,-3.745079041E-3,4.755318699E-3
7.342154390E0,-4.498645663E-3,-5.456268787E-3,-1.083946228E-2,1.294228049E-2
7.347186057E0,-7.181946188E-3,-5.905628204E-4,-2.737712860E-2,2.830965005E-2
7.352206005E0,1.644935086E-2,4.129767418E-3,-1.289749146E-2,2.130683948E-2
7.357225953E0,1.977939010E-1,1.134270430E-2,-9.593582153E-2,2.201244331E-1
7.362245901E0,5.625914931E-1,1.844349504E-2,-2.448081970E-1,6.138244081E-1
7.367265849E0,4.208430052E-1,8.492141962E-3,4.702758789E-2,4.235475717E-1
7.372285797E0,2.671354115E-1,-3.220665455E-2,4.053335190E-1,4.865119303E-1
7.377315015E0,3.277614415E-1,-8.218616247E-3,4.280920029E-1,5.392196872E-1
7.382334963E0,2.998328209E-1,3.473067284E-2,1.822357178E-1,3.525844536E-1
7.387354911E0,6.049935892E-2,3.936626017E-2,-4.969024658E-2,8.762987775E-2
7.392374859E0,-1.010437086E-1,3.208523989E-2,-2.606859207E-1,2.814186258E-1
7.397394807E0,-3.561176062E-1,-8.445262909E-3,-2.371292114E-1,4.279267867E-1
7.402414755E0,-3.750762343E-1,-1.078626513E-2,-1.116275787E-1,3.914833859E-1
7.407457984E0,-2.421508133E-1,-1.564112306E-2,-1.805973053E-2,2.433265604E-1
7.412477932E0,-1.571149677E-1,-4.173013568E-2,1.059436798E-2,1.629072065E-1
7.417497880E0,-4.593950510E-2,3.873765469E-3,5.089664459E-2,6.867250264E-2
7.422517828E0,-7.537923753E-2,3.954349458E-2,5.760574341E-2,1.027819979E-1
7.427537776E0,-7.903002203E-3,1.542332768E-2,-2.839374542E-2,3.326471494E-2
7.432557724E0,-3.710404783E-2,-3.848522902E-3,-2.816486359E-2,4.674164134E-2
7.437592099E0,4.707390070E-2,1.267307997E-2,-7.307720184E-2,8.784552642E-2
7.442612047E0,1.017397940E-1,1.490774751E-2,-4.397010803E-2,1.118328978E-1
7.447631995E0,1.631273031E-1,2.818763256E-3,-2.935981750E-2,1.657723178E-1
7.452651942E0,2.287498713E-1,-6.689518690E-3,-2.199459076E-2,2.299021863E-1
7.457671890E0,1.683440655E-1,-1.395165920E-2,6.607341766E-2,1.813837637E-1
7.462691838E0,1.942698359E-1,-2.342456579E-2,7.264423370E-2,2.087262900E-1
7.467713713E0,1.704598814E-1,-3.054738045E-2,1.052885056E-1,2.026706270E-1
7.472733661E0,1.446840465E-1,-6.781041622E-3,2.600955963E-2,1.471596175E-1
7.477753609E0,1.191749871E-1,-2.165049314E-3,1.866054535E-2,1.206465123E-1
7.482773557E0,1.274510473E-1,-9.205371141E-3,-7.624626160E-3,1.280103247E-1
7.487793505E0,2.742496878E-2,-2.083417773E-2,4.945850372E-2,6.026885983E-2
7.492813453E0,4.040428251E-2,-2.059251070E-2,3.242206573E-2,5.574717830E-2
7.497853817E0,4.610206559E-2,-2.727037668E-2,-3.197669983E-2,6.238255548E-2
7.502874182E0,1.818523183E-2,-5.543005466E-2,-3.645610809E-2,6.879128894E-2
7.507894547E0,-4.564604163E-2,-3.827235103E-2,-4.090118408E-2,7.225815407E-2
7.512914911E0,-9.273765609E-3,9.676069021E-3,1.170539856E-2,1.779453275E-2
7.517935276E0,1.055996418E-1,5.004659295E-2,7.812690735E-2,1.405694116E-1
7.522955640E0,1.510336995E-1,5.914728343E-2,3.709506989E-2,1.663899749E-1
7.527983557E0,1.182636023E-1,3.971840441E-2,5.579566956E-2,1.366637772E-1
7.533003922E0,-1.612854004E-2,4.157143831E-2,2.919864655E-2,5.329986161E-2
7.538024286E0,-1.236308664E-1,4.366882145E-2,-5.655860901E-2,1.427950747E-1
7.543044651E0,-1.008326411E-1,2.922412753E-2,-1.344738007E-1,1.706003347E-1
7.548065015E0,5.081040412E-2,6.241124868E-2,-1.832380295E-1,2.001325475E-1
7.553085380E0,-4.153234512E-2,1.920068264E-2,2.733325958E-2,5.329830189E-2
7.558110276E0,-8.223043382E-2,2.122512460E-2,1.244955063E-1,1.507032888E-1
7.563130640E0,-6.005080789E-2,3.035998344E-2,8.069229126E-2,1.050669976E-1
7.568151005E0,2.809200808E-2,2.774932981E-2,-6.013679504E-2,7.194178439E-2
7.573171370E0,-2.021733858E-2,-2.002683282E-2,-3.113174438E-2,4.217819722E-2
7.578191734E0,-7.551223785E-2,-5.536764860E-3,-1.186752319E-2,7.663936284E-2
7.583212099E0,-2.587168850E-2,1.575091481E-2,1.435565948E-2,3.351895796E-2
7.588243609E0,-3.086266108E-2,-3.523647785E-3,7.837009430E-2,8.430178897E-2
7.593263974E0,5.202882737E-2,-1.783397794E-2,-1.493167877E-2,5.699126843E-2
7.598284338E0,8.423775434E-2,5.983620882E-3,-5.519580841E-2,1.008879589E-1
7.603304703E0,9.649143554E-3,-3.675681353E-2,-3.335380554E-2,5.056328368E-2
7.608325067E0,8.038037270E-2,-3.163021803E-2,-9.320259094E-3,8.688119611E-2
7.613345432E0,1.217602119E-1,-4.560300708E-2,-2.824687958E-2,1.330528829E-1
7.618377463E0,6.111907959E-2,-5.233302712E-2,8.601379395E-2,1.177822583E-1
7.623397828E0,1.201247424E-1,-5.435994267E-2,4.253482819E-2,1.385430212E-1
7.628418192E0,1.570018232E-1,-1.133891940E-2,-2.196407318E-2,1.589357231E-1
7.633438557E0,7.263023406E-2,-3.271207213E-2,3.047752380E-2,8.528839323E-2
7.638458922E0,2.806400508E-2,7.856816053E-3,9.436321259E-2,9.876099346E-2
7.643479286E0,-8.070940152E-3,3.151097894E-2,1.054563522E-1,1.103590689E-1
7.648524390E0,-1.786933653E-2,5.269689858E-2,4.811286926E-3,5.585181098E-2
7.653544755E0,-1.913712360E-2,4.514770210E-2,-1.330080032E-1,1.417592093E-1
7.658565120E0,-1.561121494E-1,2.815926075E-2,-6.538200378E-2,1.715772525E-1
7.663585484E0,-2.818210125E-1,2.561771870E-2,6.582164764E-2,2.905371575E-1
7.668605849E0,-1.755455136E-1,2.557802200E-2,5.340480804E-2,1.852634235E-1
7.673626213E0,-1.319775283E-1,2.321591973E-2,-5.630397797E-2,1.453519345E-1
7.678637880E0,-2.247554213E-1,4.214958847E-2,-4.870033264E-2,2.338018597E-1
7.683658245E0,-3.197578788E-1,-5.693197250E-3,-3.403854370E-2,3.216148877E-1
7.688678609E0,-2.058544457E-1,1.322153211E-2,-9.552478790E-2,2.273232210E-1
7.693698974E0,-1.268382221E-1,2.960383892E-2,-4.010009766E-2,1.362803717E-1
7.698719338E0,-7.508081198E-2,-6.412029266E-3,-3.502464294E-2,8.309613745E-2
7.703739703E0,2.798120305E-2,5.331724882E-3,-3.712272644E-2,4.679179236E-2
7.708777567E0,6.123590842E-2,9.797692299E-3,5.931854248E-3,6.229781817E-2
7.713797932E0,6.386044621E-2,4.828721285E-3,7.001209259E-2,9.488501593E-2
7.718818297E0,9.094343334E-2,4.652380943E-3,9.317779541E-2,1.302860479E-1
7.723838661E0,2.289769500E-1,2.807733417E-2,-2.401256561E-2,2.319383186E-1
7.728859026E0,2.158403695E-1,2.032032609E-2,-3.095436096E-2,2.189935004E-1
7.733879390E0,6.049357355E-2,-4.185414314E-2,3.580760956E-2,8.181336468E-2
7.738909182E0,5.636225641E-2,-5.594861507E-2,-1.676082611E-2,8.116573642E-2
7.743929547E0,1.119741127E-1,-4.844200611E-2,2.378463745E-3,1.220265830E-1
7.748949911E0,1.486427188E-1,-5.984660983E-2,-4.767417908E-3,1.603090853E-1
7.753970276E0,1.239742562E-1,-6.165435910E-2,4.753684998E-2,1.463920363E-1
7.758990640E0,1.403160393E-1,-8.255565166E-2,1.863479614E-2,1.638636083E-1
7.764011005E0,5.934011191E-2,-8.908197284E-2,5.886268616E-2,1.221542573E-1
7.769038661E0,5.516782403E-2,-5.243006349E-2,6.119728088E-3,7.635346382E-2
7.774059026E0,-8.638382703E-2,-1.136894226E-1,7.496356964E-2,1.612668198E-1
7.779079390E0,-6.231144071E-2,-3.438648582E-2,7.196617126E-2,1.012140102E-1
7.784099755E0,4.232725129E-2,2.297961712E-2,-2.364921570E-2,5.365579566E-2
7.789120120E0,-9.812285751E-2,2.042746544E-2,8.820533752E-2,1.335123892E-1
7.794140484E0,-1.231179982E-1,-1.003742218E-3,-4.079818726E-2,1.297055938E-1
7.799172724E0,-2.528362870E-1,-1.033246517E-3,-5.470561981E-2,2.586889261E-1
7.804193088E0,-3.222972155E-1,3.948241472E-3,-6.373882294E-2,3.285631161E-1
7.809213453E0,-2.730862498E-1,1.601549983E-2,-7.507228851E-2,2.836696046E-1
7.814233817E0,-1.283522099E-1,5.163450539E-2,-1.575870514E-1,2.097000017E-1
7.819254182E0,-2.632316649E-1,2.033782005E-2,-1.136779785E-2,2.642607863E-1
7.824274547E0,-3.277800381E-1,-8.375227451E-3,5.523967743E-2,3.325076237E-1
7.829310745E0,-1.335418522E-1,2.238368988E-2,-3.075027466E-2,1.388525666E-1
7.834331109E0,-3.362465650E-3,1.023173332E-2,-1.065216064E-1,1.070646869E-1
7.839351474E0,-7.882848382E-2,-3.517970443E-2,-1.300144196E-2,8.729592750E-2
7.844371838E0,-2.068297565E-2,-4.248231649E-3,2.272415161E-2,3.101967151E-2
7.849392203E0,1.708861440E-3,1.222422719E-2,6.765747070E-2,6.877416143E-2
7.854412567E0,1.634941995E-1,2.533197403E-3,-3.031444550E-2,1.663001382E-1
7.859448817E0,1.856218874E-1,7.071495056E-3,-3.957939148E-2,1.899263525E-1
7.864469182E0,1.082689911E-1,6.717473269E-3,1.062011719E-2,1.089958062E-1
7.869489547E0,6.585969031E-2,-6.044209003E-4,8.178997040E-2,1.050117298E-1
7.874509911E0,1.314874291E-1,-1.018932462E-2,3.596973419E-2,1.366988959E-1
7.879530276E0,2.133010328E-1,-7.764667273E-3,-1.896953583E-2,2.142836063E-1
7.884550640E0,2.044224441E-1,1.374813914E-2,3.345203400E-2,2.075971714E-1
7.889560380E0,1.462993473E-1,1.834923029E-2,5.692863464E-2,1.580539867E-1
7.894580745E0,1.105603129E-1,-5.646407604E-3,6.833171844E-2,1.300949209E-1
7.899601109E0,2.787294984E-2,-6.967058778E-2,2.263355255E-2,7.837837607E-2
7.904621474E0,-4.936522245E-2,-9.040239453E-2,-3.456211090E-2,1.086464801E-1
7.909641838E0,6.567864865E-2,-3.014120460E-2,-1.411685944E-1,1.585898772E-1
7.914662203E0,5.386631191E-2,-1.108735800E-3,-5.446338654E-2,7.660985137E-2
7.919710328E0,-7.567533851E-2,-5.065768957E-2,1.265459061E-1,1.559064614E-1
7.924730692E0,-9.450253844E-2,-3.111359477E-2,9.224319458E-2,1.356745831E-1
7.929751057E0,-5.414526910E-2,-1.194098592E-2,-5.920410156E-3,5.576153304E-2
7.934771422E0,-9.051012993E-2,-2.370575070E-2,-5.812835693E-2,1.101496805E-1
7.939791786E0,-2.570750713E-1,-1.641979814E-2,3.262996674E-2,2.596573065E-1
7.944812151E0,-1.448846459E-1,1.218482852E-2,-7.453918457E-2,1.633894755E-1
7.949834026E0,-8.471779525E-2,5.237750709E-2,-1.119318008E-1,1.498306915E-1
7.954854390E0,-7.334294170E-2,9.143471718E-3,-1.015033722E-1,1.255616372E-1
7.959874755E0,-1.617757976E-1,-2.908423543E-2,1.573371887E-2,1.651207175E-1
7.964895120E0,-8.080706000E-2,-2.650550008E-2,-5.804538727E-2,1.029640202E-1
7.969915484E0,9.429449588E-2,1.881235838E-2,-5.994415283E-2,1.133078031E-1
7.974935849E0,7.546639442E-2,-1.939111948E-2,2.313613892E-3,7.795219696E-2
7.979973297E0,6.196032465E-2,-1.704877615E-2,9.255504608E-2,1.126773232E-1
7.984993661E0,1.014038846E-1,-7.650613785E-3,1.012773514E-1,1.435213629E-1
7.990014026E0,2.068196982E-1,3.967861831E-2,6.513595581E-4,2.105925084E-1
7.995034390E0,2.090498805E-1,3.925915062E-2,1.014328003E-2,2.129460485E-1
8.000054755E0,1.000241861E-1,3.182101250E-2,2.906227112E-2,1.089129480E-1
8.005075120E0,4.009982198E-2,2.434027195E-2,2.644252777E-2,5.384841536E-2
8.010097203E0,6.867235154E-2,4.492700100E-4,-4.504013062E-2,8.212616559E-2
