"Time (s)","Linear Acceleration x (m/s^2)","Linear Acceleration y (m/s^2)","Linear Acceleration z (m/s^2)","Absolute acceleration (m/s^2)"
5.167287300E-2,1.275727898E-2,6.364762783E-3,1.596927643E-2,2.140738569E-2
5.665631000E-2,-8.419327438E-3,2.290920913E-2,-2.392768860E-3,2.452432018E-2
6.163980000E-2,-8.636079729E-3,3.008157015E-3,1.917839050E-3,9.343927885E-3
6.662328900E-2,8.833721280E-3,2.519637346E-3,-8.382797241E-3,1.243601599E-2
7.180782100E-2,-6.670877337E-4,4.228100181E-3,5.134582520E-3,6.684741942E-3
7.679131000E-2,5.770437419E-3,-1.095800102E-2,-5.987167358E-3,1.375579541E-2
8.177480000E-2,-1.100994647E-3,-1.403142512E-2,-7.452964783E-3,1.592607184E-2
8.675823700E-2,-7.439091802E-3,1.325768977E-2,-6.707191467E-3,1.661604172E-2
9.174172700E-2,6.133355200E-3,-1.401859522E-2,-6.095886230E-3,1.647115317E-2
9.672521600E-2,1.298911870E-3,-6.104335189E-3,-3.390312195E-3,7.102414865E-3
1.019412580E-1,-1.199696958E-2,-1.446408033E-2,1.293182373E-3,1.883638022E-2
1.069247480E-1,-4.446588457E-3,-2.293959260E-3,1.009845734E-2,1.127001502E-2
1.119082370E-1,1.608897746E-2,9.052723646E-3,-1.293373108E-2,2.254081633E-2
1.168916750E-1,1.066047698E-2,1.074749231E-2,-1.437091827E-2,2.087289277E-2
1.218751640E-1,1.686672121E-2,1.014113426E-3,-2.705478668E-2,3.189790264E-2
1.268586540E-1,4.686720669E-3,-3.699719906E-3,-1.198005676E-2,1.338562804E-2
1.320650080E-1,4.461653531E-3,9.983032942E-4,-6.811141968E-3,8.203329604E-3
1.370484980E-1,6.634637713E-3,-1.491649449E-2,-2.467632294E-2,2.958785459E-2
1.420319870E-1,-2.834424376E-3,1.680821180E-3,1.300048828E-2,1.341162991E-2
1.470154250E-1,-7.257990539E-3,-7.576316595E-3,9.756088257E-4,1.053711594E-2
1.519989140E-1,4.734382033E-3,1.553260535E-2,-1.740169525E-2,2.380115963E-2
1.569824040E-1,6.854407489E-3,-1.218423247E-3,3.983497620E-3,8.020954465E-3
1.621982890E-1,1.344816387E-2,5.849793553E-3,-7.734298706E-4,1.468575465E-2
1.671817790E-1,-1.689102873E-2,5.690783262E-3,-7.438659668E-4,1.783942831E-2
1.721652680E-1,-7.017306983E-3,-1.424774528E-3,3.897666931E-3,8.152569366E-3
1.771487060E-1,-4.335299134E-3,-1.049770415E-2,1.449584961E-3,1.144979945E-2
1.821321960E-1,6.118565798E-4,2.472412586E-2,6.026268005E-3,2.545530739E-2
1.871156850E-1,-1.652762294E-3,2.386526763E-2,1.193046570E-3,2.395216029E-2
1.923392790E-1,-1.419603825E-3,1.383850724E-2,-5.801200867E-3,1.507227551E-2
1.973227680E-1,-1.527794078E-2,-1.220621169E-2,-5.620956421E-3,2.034704473E-2
2.023062580E-1,-5.501471460E-3,9.136393666E-3,-1.241779327E-2,1.636891772E-2
2.072896960E-1,1.095752418E-2,6.558701396E-3,8.872032166E-3,1.554981848E-2
2.122731850E-1,-3.350026906E-3,-1.693569124E-2,1.637458801E-3,1.734132605E-2
2.172566750E-1,8.408352733E-3,-1.655115187E-2,1.789379120E-2,2.578427403E-2
2.224670910E-1,-1.172684133E-3,9.550943971E-3,8.087158203E-3,1.256971943E-2
2.274505810E-1,-3.351643682E-3,4.650428891E-3,8.764266968E-4,5.798976461E-3
2.324340710E-1,-1.014520228E-2,-7.224917412E-3,-1.782035828E-2,2.174142889E-2
2.374175080E-1,-1.220520586E-2,-1.228451729E-4,8.315086365E-3,1.476898108E-2
2.424009980E-1,-2.434246242E-3,9.092986584E-3,1.098632812E-3,9.477075173E-3
2.473844870E-1,-4.693441093E-3,2.053376287E-2,-1.062107086E-2,2.358963656E-2
2.525937060E-1,1.415631920E-2,-9.853839874E-4,-2.207279205E-2,2.624081752E-2
2.575771960E-1,-1.388490200E-4,-5.730673671E-3,-9.867668152E-3,1.141186990E-2
2.625606850E-1,1.857280731E-2,-8.082494140E-3,1.845741272E-2,2.740350283E-2
2.675441230E-1,1.785747707E-3,1.783536375E-2,1.571178436E-2,2.383588183E-2
2.725276120E-1,-2.402211726E-2,2.679810673E-2,1.309394836E-3,3.601270827E-2
2.775111020E-1,-9.530782700E-5,-6.531700492E-3,1.066493988E-2,1.250652380E-2
2.827316230E-1,2.104928344E-2,-1.688167453E-3,-8.325576782E-3,2.269884296E-2
2.877151120E-1,-4.275888205E-4,5.353182554E-3,-1.116752625E-3,5.485119149E-3
2.926986020E-1,-1.209078729E-2,-2.766717970E-2,5.949974060E-3,3.077437508E-2
2.976820390E-1,-7.035866380E-3,3.423362970E-3,1.993083954E-2,2.141170695E-2
3.026655290E-1,-1.623111963E-2,9.225308895E-4,-8.651733398E-3,1.841610161E-2
3.076490180E-1,-8.855693042E-3,-1.328770816E-2,-2.259922028E-2,2.767148794E-2
3.128596430E-1,7.739365101E-3,1.054418832E-2,-2.218723297E-2,2.575560107E-2
3.178431330E-1,1.007898152E-2,-2.026398480E-2,-5.324363708E-3,2.325002790E-2
3.228266230E-1,6.624534726E-4,-3.418654203E-3,1.359558105E-2,1.403445280E-2
3.278100600E-1,1.484953612E-2,2.004504949E-2,3.941535950E-3,2.525566150E-2
3.327935500E-1,1.687186211E-2,8.308291435E-4,-2.438449860E-2,2.966401490E-2
3.377770390E-1,2.003461123E-5,-1.079182327E-2,-2.775192261E-3,1.114295934E-2
3.430013100E-1,-2.132561430E-2,-8.188739419E-3,-9.797096252E-3,2.485599271E-2
3.479848000E-1,-1.158393919E-2,1.311977953E-2,-4.924774170E-3,1.818157481E-2
3.529682890E-1,5.227610469E-3,5.855798721E-3,-1.325607300E-4,7.850851051E-3
3.579517270E-1,-1.855544746E-3,-1.072627306E-2,-1.899528503E-2,2.189330568E-2
3.629352160E-1,-1.856759191E-3,-8.289203048E-3,1.195812225E-2,1.466816722E-2
3.679187060E-1,-6.423696876E-3,-5.840137601E-3,-2.380371094E-3,9.002069500E-3
3.731220910E-1,-1.585140824E-3,1.775443554E-2,-4.705429077E-3,1.843566423E-2
3.781055810E-1,-6.208866835E-3,2.459047735E-2,8.487701416E-5,2.536235020E-2
3.830890710E-1,-1.273900270E-3,1.947676390E-2,9.524345398E-3,2.171820226E-2
3.880725080E-1,-1.062797755E-2,-1.374080777E-2,7.028579712E-3,1.873938734E-2
3.930559980E-1,-3.268130124E-3,-6.702303886E-3,2.818107605E-2,2.915089363E-2
3.980394870E-1,-1.270076260E-2,9.891383350E-3,-2.919197083E-3,1.636064017E-2
4.032563100E-1,1.671880484E-3,1.455169916E-2,-3.359317780E-2,3.664762922E-2
4.082398000E-1,-6.923004985E-4,1.922398806E-4,4.671096802E-3,4.726032319E-3
4.132232890E-1,6.483301520E-3,-4.622682929E-3,4.607200623E-3,9.199385504E-3
4.182067270E-1,-1.002418250E-2,-2.350836992E-2,4.545211792E-3,2.595740051E-2
4.231902160E-1,4.415951669E-3,-1.378129423E-2,-7.337570190E-3,1.622543177E-2
4.281737060E-1,2.068899572E-3,2.862855792E-3,1.640319824E-2,1.677918953E-2
4.333964140E-1,-2.558045089E-3,-2.322787046E-2,1.855945587E-2,2.984176542E-2
4.383799040E-1,2.276614308E-3,-1.340866089E-2,-1.479053497E-2,2.009316014E-2
4.433633930E-1,-1.187336817E-2,-3.608837724E-3,-3.116703033E-2,3.354674889E-2
4.483468310E-1,1.900329441E-2,-3.497421741E-3,1.417350769E-2,2.396341957E-2
4.533303210E-1,-2.503842115E-3,-3.439292312E-3,2.346992493E-2,2.385236535E-2
4.583138100E-1,-8.478015661E-5,-1.053439081E-2,-2.178382874E-2,2.419743316E-2
4.635193310E-1,-6.772577763E-6,-3.345161676E-3,-4.046726227E-2,4.060528867E-2
4.685028210E-1,-4.617512226E-3,1.086414605E-2,2.527236938E-4,1.180741114E-2
4.734863100E-1,-6.911516190E-3,1.180097461E-3,-6.855010986E-3,9.805756558E-3
4.784697480E-1,-2.112469077E-2,1.060394198E-2,-1.861858368E-2,3.008899805E-2
4.834532370E-1,5.291618407E-3,1.281791180E-2,-1.841068268E-2,2.304893327E-2
4.884367270E-1,1.009443402E-2,1.984923333E-2,-2.531337738E-2,3.371434022E-2
4.936514140E-1,5.322344601E-3,7.486939430E-4,1.997947693E-2,2.068978958E-2
4.986349040E-1,-1.130083576E-2,-1.340909302E-2,3.176689148E-3,1.782144827E-2
5.036183930E-1,-4.099994898E-3,-1.324890554E-2,1.025104523E-2,1.724608316E-2
5.086018310E-1,-1.346334815E-2,1.231133938E-3,3.033638000E-3,1.385569896E-2
5.135853210E-1,5.662240088E-3,-1.762507856E-2,7.744789124E-3,2.006704053E-2
5.185688100E-1,-1.570935175E-2,-1.031345129E-2,5.293846130E-3,1.952372446E-2
5.237826120E-1,-1.304545999E-2,2.305516601E-2,-6.615638733E-3,2.730368806E-2
5.287738620E-1,3.758296371E-3,1.393228769E-3,1.478958130E-2,1.532310651E-2
5.337651120E-1,1.322860271E-2,-1.762607694E-2,1.938247681E-2,2.934884878E-2
5.387563620E-1,2.276109904E-2,-5.678161979E-3,1.681423187E-2,2.886221659E-2
5.437475600E-1,1.544205099E-2,1.336837560E-2,-2.326965332E-3,2.055687653E-2
5.487388100E-1,1.051806659E-2,-1.051765680E-2,-2.304077148E-3,1.505189692E-2
5.539139140E-1,-3.793597221E-3,-1.282389462E-2,-4.654884338E-3,1.416021191E-2
5.589051640E-1,1.044770330E-2,-5.567148328E-3,-1.884460449E-2,2.225458971E-2
5.638964140E-1,7.946237922E-3,2.049856633E-2,1.217842102E-2,2.513260546E-2
5.688876640E-1,1.269178838E-2,8.457481861E-3,2.572059631E-3,1.546693190E-2
5.738788620E-1,-4.015542567E-3,8.343607187E-3,-1.643753052E-2,1.886618066E-2
5.788701120E-1,3.213502467E-3,1.302830130E-2,-1.153850555E-2,1.769746714E-2
5.840578210E-1,5.741126835E-3,5.858600140E-3,-1.938819885E-3,8.428686462E-3
5.890490710E-1,-1.358903944E-3,2.238580585E-2,5.199432373E-3,2.302183790E-2
5.940403210E-1,1.529315114E-2,7.853716612E-3,1.702117920E-2,2.419259965E-2
5.990315710E-1,1.038350165E-3,-1.747697592E-3,-2.111816406E-2,2.121578354E-2
6.040227680E-1,-5.968011916E-3,1.722693443E-2,7.559776306E-3,1.973663229E-2
6.090140180E-1,6.237536669E-3,-2.058669925E-3,1.698684692E-2,1.821257681E-2
6.141823520E-1,-8.095055819E-3,-4.398420453E-3,1.683902740E-2,1.919450117E-2
6.191736020E-1,1.094211638E-2,2.727687359E-3,-7.055282593E-3,1.330215026E-2
6.241648520E-1,-5.859680474E-3,-1.163384318E-2,-4.620552063E-3,1.382142047E-2
6.291561020E-1,8.564844728E-3,1.693077385E-2,1.678466797E-4,1.897461043E-2
6.341473000E-1,1.441538334E-3,1.918069273E-2,-9.335517883E-3,2.138057297E-2
6.391385500E-1,-3.248155117E-3,-4.770144820E-3,1.687240601E-2,1.783207441E-2
6.443340180E-1,1.497291028E-3,-1.184104383E-2,-1.177406311E-2,1.676546336E-2
6.493252680E-1,3.935143352E-3,-1.404938102E-2,-9.301185608E-3,1.730267361E-2
6.543165180E-1,2.071000636E-2,-1.871788502E-2,1.928138733E-2,3.392691380E-2
6.593077680E-1,6.305187941E-3,-1.854619384E-2,3.099822998E-2,3.666888276E-2
6.642989660E-1,-1.505309716E-2,1.261018962E-2,-1.439380646E-2,2.434736702E-2
6.692902160E-1,1.127664745E-2,1.494841278E-2,9.480476379E-3,2.098802646E-2
6.744498520E-1,4.186831415E-3,1.478777826E-2,-2.477645874E-3,1.556748766E-2
6.794411020E-1,-4.216283560E-4,5.075439811E-3,-2.459526062E-3,5.655716417E-3
6.844323520E-1,2.108681947E-2,-4.349529743E-3,1.656627655E-2,2.716641093E-2
6.894236020E-1,2.330902219E-2,-1.142345369E-2,1.167678833E-2,2.846319018E-2
6.944148000E-1,1.368603110E-2,1.239148527E-2,4.452705383E-3,1.899165448E-2
6.994060500E-1,8.997716010E-3,-9.127244353E-3,1.629066467E-2,2.072803026E-2
7.045803210E-1,8.945219219E-3,-1.146365702E-2,4.276275635E-3,1.515648087E-2
7.095715710E-1,-5.464963615E-3,-1.842732728E-2,-1.238632202E-2,2.286598327E-2
7.145628210E-1,1.123103499E-2,6.949007511E-4,-5.158424377E-3,1.237854499E-2
7.195540710E-1,6.356351078E-3,6.534755230E-4,2.011299133E-3,6.698921815E-3
7.245452680E-1,-6.981268525E-4,5.415186286E-3,1.862239838E-2,1.940632229E-2
7.295365180E-1,8.883237839E-3,3.010600805E-3,4.214286804E-3,1.028279364E-2
7.347098000E-1,-7.850661874E-3,2.206005156E-2,1.804351807E-3,2.348477064E-2
7.397010500E-1,-2.960063517E-3,-6.406977773E-3,1.842117310E-2,1.972690950E-2
7.446923000E-1,-1.473828033E-2,-2.771659195E-2,2.301883698E-2,3.892676755E-2
7.496835500E-1,-9.841289371E-3,2.241748571E-2,1.570034027E-2,2.908427972E-2
7.546747480E-1,4.465341568E-3,2.462302148E-2,-1.056194305E-2,2.716223672E-2
7.596659980E-1,6.826058030E-3,-8.978381753E-3,-1.285076141E-2,1.709820096E-2
7.648421960E-1,4.416860640E-3,6.692707539E-4,-1.274299622E-2,1.350335269E-2
7.698334460E-1,-5.151405931E-3,5.431219935E-3,3.992080688E-3,8.483621943E-3
7.748246960E-1,-3.364160657E-4,5.988627672E-4,-5.544662476E-3,5.587047015E-3
7.798159460E-1,-2.583347261E-3,-1.364289224E-2,-1.262569427E-2,1.876726799E-2
7.848071430E-1,1.419274509E-2,3.116011620E-3,1.731872559E-3,1.463362307E-2
7.897983930E-1,1.647170633E-2,7.753759623E-3,-1.016139984E-2,2.084926724E-2
7.949735500E-1,2.210915089E-3,-1.383483410E-2,1.130008698E-2,1.799952071E-2
7.999648000E-1,2.317592502E-3,-2.083007991E-2,-5.423545837E-3,2.164897951E-2
8.049560500E-1,1.182282716E-2,5.490854383E-3,-2.438259125E-2,2.764849869E-2
8.099473000E-1,4.672490060E-3,2.198727429E-2,4.325866699E-3,2.289072993E-2
8.149384980E-1,9.458020329E-3,2.176843584E-2,-7.589340210E-3,2.491820684E-2
8.199297480E-1,-2.321675420E-3,-6.851628423E-3,-7.526397705E-3,1.043942772E-2
8.251090710E-1,1.677959412E-2,-1.142084599E-2,1.866912842E-2,2.757765142E-2
8.301003210E-1,7.263414562E-3,-4.130899906E-3,1.851367950E-2,2.031201255E-2
8.350915710E-1,1.435048878E-2,-4.184171557E-3,-3.021240234E-3,1.525030204E-2
8.400828210E-1,-4.804112017E-3,1.487071812E-2,-6.208419800E-4,1.563979522E-2
8.450740180E-1,-1.186969876E-2,1.001144201E-2,6.511688232E-3,1.683807600E-2
8.500652680E-1,2.606838942E-3,2.171799541E-2,4.079818726E-3,2.225110906E-2
8.552354770E-1,1.242086291E-4,1.734346151E-4,3.017711639E-2,3.017787039E-2
8.602266750E-1,1.677362621E-2,-2.187445760E-3,1.092147827E-2,2.013499796E-2
8.652179770E-1,1.438341290E-2,9.776271880E-3,1.320648193E-2,2.183733554E-2
8.702091750E-1,2.459958196E-3,-9.293049574E-3,-2.253627777E-2,2.450093836E-2
8.752004250E-1,9.588465095E-3,-4.499793053E-3,-5.721092224E-3,1.203817663E-2
8.801916750E-1,-9.474750608E-3,1.455771923E-2,-8.049011230E-3,1.914378933E-2
8.853844870E-1,-9.320158511E-3,1.995265484E-4,-1.985931396E-2,2.193849395E-2
8.903756850E-1,-6.794258952E-3,2.537429333E-3,-1.019287109E-2,1.250980110E-2
8.953669350E-1,1.006863266E-2,4.856556654E-3,-5.358695984E-3,1.239673864E-2
9.003581850E-1,1.480849832E-2,9.531177580E-3,1.844120026E-2,2.549927127E-2
9.053494350E-1,-1.921273768E-3,-1.898655295E-2,6.411552429E-3,2.013177813E-2
9.103406850E-1,-4.309415817E-3,2.620026469E-3,1.110935211E-2,1.220054539E-2
9.155151120E-1,5.551129580E-4,2.615615726E-3,8.641242981E-3,9.045478223E-3
9.205063620E-1,-1.363004372E-2,5.036786199E-3,3.818511963E-3,1.502425840E-2
9.254975600E-1,2.219070494E-2,-1.960247755E-3,1.329040527E-2,2.594040920E-2
9.304888620E-1,1.025320590E-2,-1.876115799E-3,-1.073837280E-3,1.047860526E-2
9.354800600E-1,1.251258701E-2,1.953507215E-2,-3.440856934E-3,2.345257713E-2
9.404713100E-1,1.718038321E-2,7.458597422E-3,8.463859558E-3,2.055317886E-2
9.456561540E-1,1.711273193E-2,2.861618996E-4,3.643035889E-3,1.749854832E-2
9.506474040E-1,7.491759956E-3,-6.929069757E-3,2.024078369E-2,2.266777006E-2
9.556386020E-1,1.457833499E-2,3.234446049E-4,1.769733429E-2,2.293094216E-2
9.606299040E-1,2.160304785E-2,-2.039805055E-3,9.212493896E-4,2.171868277E-2
9.656211020E-1,7.294200361E-3,7.443338633E-3,-1.333999634E-2,1.692820579E-2
9.706123520E-1,1.691309363E-2,2.646684647E-3,-1.352310181E-3,1.717225723E-2
9.757828730E-1,7.344581187E-3,-1.404179633E-2,1.033782959E-3,1.588029043E-2
9.807741230E-1,2.656713128E-3,7.367342710E-3,1.023292542E-3,7.898290377E-3
9.857653210E-1,3.338381648E-4,1.439766586E-2,1.526641846E-2,2.098732385E-2
9.907566230E-1,-6.771765649E-3,4.164874554E-5,1.513957977E-2,1.658509633E-2
9.957478210E-1,1.948968321E-2,1.911375672E-2,-8.742332458E-3,2.866377198E-2
1.000739071E0,4.480928183E-4,1.411606371E-2,-3.919601440E-3,1.465698869E-2
1.005914071E0,-1.373131201E-2,-2.909898758E-4,-2.289199829E-2,2.669601450E-2
1.010905321E0,1.490986347E-2,-7.451549172E-3,3.429412842E-3,1.701735838E-2
1.015896571E0,1.718354970E-2,2.129152417E-3,-1.350402832E-3,1.736753460E-2
1.020887821E0,-9.068865329E-3,2.820668370E-2,-1.084232330E-2,3.155023452E-2
1.025879018E0,-1.831862330E-2,1.856818795E-3,-3.625869751E-3,1.876610421E-2
1.030870268E0,8.089356124E-3,-1.239615679E-2,-1.220703125E-3,1.485235677E-2
1.036036466E0,5.561113358E-3,1.622986794E-2,-3.584861755E-3,1.752671757E-2
1.041033862E0,-1.584335044E-2,-2.997115254E-3,-1.068305969E-2,1.934223920E-2
1.046031258E0,8.116848767E-3,-1.720963418E-2,-1.296901703E-2,2.302716104E-2
1.051028706E0,8.123405278E-3,1.631130278E-2,1.393318176E-3,1.827538364E-2
1.056026102E0,3.431990743E-3,1.939356327E-3,8.506774902E-3,9.375760378E-3
1.061023498E0,5.904898047E-3,-5.186960101E-3,-3.442764282E-3,8.580501264E-3
1.066165529E0,3.449238837E-3,6.857052445E-3,1.796817780E-2,1.953898232E-2
1.071162925E0,1.046527922E-2,-3.103725612E-2,8.318901062E-3,3.379404462E-2
1.076160321E0,3.427088261E-3,-1.413446665E-2,-8.379936218E-3,1.678545240E-2
1.081157768E0,1.059863716E-2,2.524644136E-3,-2.256488800E-2,2.505751600E-2
1.086155164E0,8.156493306E-3,1.202184707E-2,-5.747795105E-3,1.562339075E-2
1.091152560E0,-6.091207266E-3,-7.118299603E-3,1.092815399E-2,1.439435809E-2
1.096308654E0,-3.536388278E-3,-2.398476005E-3,3.708839417E-3,5.658110905E-3
1.101306050E0,3.692477942E-3,-4.738286138E-3,3.678321838E-3,7.043848410E-3
1.106303446E0,1.566395909E-2,2.862625569E-2,1.314926147E-2,3.518131900E-2
1.111300893E0,1.803423464E-2,9.399510920E-3,8.287429810E-3,2.196055367E-2
1.116298289E0,-5.851104856E-3,-9.719520807E-3,-3.660202026E-3,1.192063722E-2
1.121295685E0,6.043195724E-3,-4.975959659E-3,-1.255035400E-3,7.928146249E-3
1.126439852E0,8.444741368E-3,-2.645727992E-2,1.300525665E-2,3.066656189E-2
1.131437248E0,1.320104301E-2,-7.163539529E-3,1.527214050E-2,2.142013330E-2
1.136434643E0,6.038613617E-3,2.414777875E-3,3.267288208E-3,7.278130175E-3
1.141432091E0,3.634475172E-3,1.191290468E-2,-6.262779236E-3,1.394091501E-2
1.146429487E0,3.574840724E-3,2.276167274E-3,-1.808834076E-2,1.857817254E-2
1.151426883E0,8.318550885E-3,-4.801169038E-3,-2.506351471E-2,2.684081375E-2
1.156560998E0,8.217632771E-3,-2.132055163E-2,-3.473281860E-3,2.311188216E-2
1.161558393E0,1.096040010E-3,-1.162461936E-2,-1.069068909E-3,1.172501545E-2
1.166555789E0,-5.966216326E-3,-9.239643812E-3,1.556682587E-2,1.906024193E-2
1.171553237E0,8.411623538E-3,2.680107951E-3,-1.192092896E-3,8.908393494E-3
1.176550633E0,1.554374397E-2,1.460441947E-2,5.945205688E-3,2.214142081E-2
1.181548029E0,1.548840851E-2,4.997029901E-3,-1.548480988E-2,2.246420359E-2
1.186694956E0,-3.515221179E-3,1.146197319E-4,-2.961063385E-2,2.981877856E-2
1.191692352E0,3.870181739E-3,-2.135324478E-2,1.515388489E-3,2.175398289E-2
1.196689748E0,1.589404792E-2,1.199550182E-2,1.337718964E-2,2.398878958E-2
1.201687196E0,-5.492977798E-3,9.380795062E-3,1.385688782E-3,1.095866116E-2
1.206684591E0,8.776672184E-3,6.995320320E-3,-1.287841797E-2,1.708268510E-2
1.211681987E0,1.110079885E-2,-2.609731257E-2,-8.017539978E-3,2.947165427E-2
1.216827300E0,1.351279765E-2,-1.863004267E-2,-1.507568359E-2,2.751273207E-2
1.221824696E0,-7.781460881E-4,2.187441289E-2,-1.257514954E-2,2.524341175E-2
1.226822091E0,4.052199423E-3,7.299348712E-3,-7.722854614E-3,1.137291938E-2
1.231819539E0,1.768857241E-3,-2.109615505E-2,-5.292892456E-4,2.117679770E-2
1.236816935E0,-7.673848420E-3,-1.847833395E-3,1.610374451E-2,1.793413017E-2
1.241814331E0,2.107428014E-2,2.421139181E-2,8.839607239E-3,3.329347433E-2
1.246960789E0,1.157955080E-2,2.170436084E-2,-7.362365723E-4,2.461112189E-2
1.251958185E0,6.805464625E-3,9.661905468E-3,-5.481719971E-3,1.302751012E-2
1.256955581E0,1.632438600E-2,-4.707485437E-3,-3.061294556E-3,1.726318400E-2
1.261953029E0,1.388700306E-2,7.277652621E-3,-1.253795624E-2,2.007519436E-2
1.266950425E0,1.915313303E-3,-4.696339369E-3,1.132011414E-2,1.240439489E-2
1.271947821E0,-2.778939903E-3,2.485170960E-3,-7.778167725E-3,8.625455051E-3
1.277091518E0,1.643144339E-2,1.435908675E-2,-7.714271545E-3,2.314488474E-2
1.282088914E0,2.106940001E-2,-5.006536841E-3,8.975028992E-3,2.344218790E-2
1.287086310E0,-5.213968456E-3,-2.727761865E-3,-2.979278564E-3,6.595623747E-3
1.292083758E0,-1.217116788E-2,1.621218026E-2,-1.483345032E-2,2.511978034E-2
1.297081154E0,6.956979632E-3,-1.489198208E-2,-7.584571838E-3,1.810238730E-2
1.302078550E0,2.122571319E-2,-1.253154874E-2,-2.773284912E-3,2.480446983E-2
1.307229696E0,1.885792613E-2,8.863694966E-3,1.625156403E-2,2.642536281E-2
1.312227091E0,4.626668990E-3,-3.070667386E-3,-1.714229584E-2,1.801925000E-2
1.317224487E0,-1.398399472E-4,-7.779330015E-3,-9.873390198E-3,1.257065490E-2
1.322221935E0,-1.687258482E-4,-1.947253942E-2,-5.038261414E-3,2.011448081E-2
1.327219331E0,1.426503062E-2,4.514053464E-3,2.826118469E-2,3.197752863E-2
1.332216727E0,-2.565123141E-3,-1.466740668E-2,-9.984016418E-3,1.792744430E-2
1.337359435E0,-4.897654057E-3,9.173132479E-3,-5.150794983E-3,1.160448464E-2
1.342356831E0,1.179504395E-2,-2.557098866E-3,3.052806854E-2,3.282719582E-2
1.347354227E0,2.127378434E-2,2.283886075E-3,-6.084442139E-4,2.140467800E-2
1.352351675E0,2.114631236E-3,-1.904676855E-2,4.148483276E-3,1.960767632E-2
1.357349071E0,9.245336056E-3,-1.412086189E-2,1.361560822E-2,2.168547362E-2
1.362346466E0,-7.438745350E-3,2.641677856E-3,-3.126144409E-3,8.490357657E-3
1.367480529E0,1.175838709E-2,-9.187191725E-3,-5.475997925E-3,1.589499015E-2
1.372477925E0,9.306579828E-3,3.558546305E-4,1.695632935E-3,9.466479370E-3
1.377475321E0,2.175904810E-3,1.684245467E-2,-3.072738647E-3,1.725817383E-2
1.382472768E0,-1.442730427E-4,2.361446619E-3,-6.732940674E-4,2.459790590E-3
1.387470164E0,4.735358059E-3,1.640509069E-2,1.595687866E-2,2.337033575E-2
1.392467560E0,4.769392312E-3,2.573487908E-2,-8.058547974E-4,2.618550183E-2
1.397622873E0,9.451158345E-3,1.128453761E-2,-1.030158997E-2,1.796630009E-2
1.402620268E0,-5.486607552E-5,-1.012074947E-2,4.037857056E-3,1.089664489E-2
1.407617664E0,9.470164776E-3,6.557047367E-3,-7.476806641E-4,1.154287301E-2
1.412615112E0,1.411297917E-2,4.195094109E-3,6.386756897E-3,1.604885228E-2
1.417612508E0,-1.857578754E-4,1.367768645E-2,1.345920563E-2,1.919020137E-2
1.422609904E0,-5.894899368E-5,-7.955342531E-3,-8.035659790E-3,1.130764246E-2
1.427749591E0,2.614803612E-2,-3.174632788E-3,6.284713745E-3,2.707943340E-2
1.432746987E0,1.175180078E-2,-1.030972600E-2,8.605957031E-3,1.784538506E-2
1.437744383E0,-9.704239666E-3,-5.611926317E-3,1.565933228E-2,1.925826243E-2
1.442741831E0,2.133072168E-2,-2.450229228E-2,1.276016235E-3,3.251138618E-2
1.447739227E0,9.349472821E-3,1.901060343E-3,6.016731262E-3,1.127952692E-2
1.452736623E0,9.345054626E-3,2.080208063E-2,-2.016639709E-2,3.044240753E-2
1.457884123E0,1.171842217E-2,2.307419479E-2,1.381874084E-3,2.591620071E-2
1.462881518E0,1.871803403E-2,-5.608066916E-3,1.370429993E-3,1.958809054E-2
1.467878914E0,6.603240967E-3,-8.455812931E-4,1.086044312E-2,1.273840742E-2
1.472876362E0,1.871332526E-3,-8.738487959E-4,2.027130127E-2,2.037623990E-2
1.477873758E0,6.732083857E-3,1.473307610E-3,1.096725464E-3,6.978136937E-3
1.482871154E0,1.392786950E-2,1.087573916E-2,-6.041526794E-3,1.867531250E-2
1.488020946E0,3.051629663E-2,-1.182690263E-3,-1.311874390E-2,3.323769784E-2
1.493018341E0,8.955657482E-3,-3.532260656E-3,-1.132011414E-3,9.693405806E-3
1.498015737E0,1.613291353E-2,1.314204931E-2,-5.874633789E-3,2.162164844E-2
1.503013185E0,1.607197523E-2,3.546491265E-3,1.317882538E-2,2.108476764E-2
1.508010581E0,1.120800525E-2,1.260697842E-3,5.945205688E-3,1.274967495E-2
1.513007977E0,6.334185600E-3,-1.040396094E-2,-5.979537964E-3,1.356905246E-2
1.518151362E0,-5.520641804E-3,-3.120779991E-3,1.196861267E-3,6.453621508E-3
1.523148758E0,-7.543042302E-4,-2.208331227E-2,-3.564834595E-3,2.238190567E-2
1.528146154E0,1.822554320E-2,-1.470513642E-2,1.547050476E-2,2.806684841E-2
1.533143602E0,3.841459751E-3,-4.961147904E-3,-1.078796387E-2,1.247998261E-2
1.538140998E0,6.259180605E-3,2.223268151E-3,-1.307296753E-2,1.466365381E-2
1.543138393E0,6.178371608E-3,-9.656131268E-3,-5.838394165E-3,1.286468007E-2
1.548292873E0,6.148569286E-3,-2.486214042E-3,8.461952209E-3,1.075131619E-2
1.553295216E0,8.493907750E-3,-2.382957935E-2,1.265525818E-3,2.532976266E-2
1.558297612E0,1.314272732E-2,1.434117556E-2,-1.062297821E-2,2.216412109E-2
1.563299956E0,2.255709469E-2,1.661331952E-2,-1.766014099E-2,3.311654400E-2
1.568302300E0,5.867138505E-3,-2.564400434E-3,8.616447449E-3,1.073511204E-2
1.573304643E0,8.370995522E-3,-1.931114495E-2,2.992153168E-2,3.658267272E-2
1.578421675E0,1.303613186E-3,1.407115161E-2,-1.210212708E-3,1.418313540E-2
1.583424018E0,1.329722255E-2,-5.033552647E-3,1.174926758E-3,1.426650738E-2
1.588426414E0,1.320885867E-2,9.278096259E-3,3.540992737E-3,1.652560580E-2
1.593428758E0,-8.156362921E-3,6.892815232E-3,-2.262020111E-2,2.501420909E-2
1.598431102E0,3.915384412E-3,4.320845008E-3,-1.530742645E-2,1.638039198E-2
1.603433446E0,-5.545824766E-3,6.624668837E-3,1.807689667E-2,2.003538377E-2
1.608545529E0,1.861065626E-3,1.138999313E-2,8.422851562E-3,1.428775480E-2
1.613547873E0,6.670899689E-3,-1.239199936E-2,1.548004150E-2,2.092114327E-2
1.618550268E0,1.608737558E-2,-1.464813948E-2,-2.740859985E-2,3.499432796E-2
1.623552612E0,-1.015514880E-2,-7.382988930E-3,-8.175849915E-3,1.498265980E-2
1.628554956E0,1.880034804E-3,9.323067963E-3,-1.998519897E-2,2.213283319E-2
1.633557300E0,-4.376098514E-4,2.186715603E-3,8.687019348E-3,8.968697378E-3
1.638674018E0,1.910097897E-3,1.643784344E-2,3.864288330E-3,1.699364279E-2
1.643676362E0,1.136624813E-2,2.581914514E-2,1.456260681E-3,2.824784147E-2
1.648678758E0,1.356516778E-2,-5.210056901E-3,3.821372986E-3,1.502535728E-2
1.653681102E0,1.574785262E-2,-2.183002234E-2,-8.089065552E-3,2.810654228E-2
1.658683446E0,-1.145161688E-3,-9.857594967E-3,2.048492432E-2,2.276215495E-2
1.663685789E0,-3.693908453E-3,-1.466441154E-2,-1.067161560E-3,1.516010420E-2
1.668805841E0,3.854034841E-2,-4.054793715E-2,-5.568981171E-2,7.893572570E-2
1.673808185E0,5.414840579E-2,-6.379160285E-2,-4.571533203E-2,9.534836143E-2
1.678810581E0,5.584099144E-2,1.045256108E-2,4.493808746E-2,7.243551658E-2
1.683812925E0,2.002836019E-2,-6.192743778E-3,8.019542694E-2,8.289023941E-2
1.688815268E0,1.105898619E-2,3.653324395E-2,1.080274582E-1,1.145727315E-1
1.693817612E0,-2.329632640E-3,5.156725645E-3,5.010414124E-2,5.042265341E-2
1.698938185E0,-1.078132540E-2,2.542868257E-3,2.354526520E-2,2.602081224E-2
1.703940529E0,-7.465589792E-3,2.370993793E-2,-1.229286194E-2,2.773104113E-2
1.708942925E0,-3.061798587E-2,9.068287909E-3,-2.645015717E-2,4.146451156E-2
1.713945268E0,-1.835834607E-2,4.206657410E-3,-5.948829651E-2,6.239857577E-2
1.718947612E0,-1.611764729E-2,1.916557550E-3,-7.561779022E-2,7.734017032E-2
1.723949956E0,-1.410429552E-2,2.112831175E-2,-5.835247040E-2,6.364234055E-2
1.729069643E0,1.815661788E-3,-1.688073575E-2,-1.272296906E-2,2.121626284E-2
1.734071987E0,2.232395113E-2,-7.168516517E-3,-1.973724365E-2,3.064808656E-2
1.739074383E0,9.557887912E-3,-6.936460733E-3,-5.607604980E-4,1.182295061E-2
1.744076727E0,4.224070907E-2,-9.185522795E-3,6.358814240E-2,7.689020214E-2
1.749079071E0,6.757776439E-2,-3.036756814E-2,3.930854797E-2,8.386957362E-2
1.754081414E0,6.672963500E-2,-3.479535878E-2,2.472972870E-2,7.921565919E-2
1.759198914E0,4.956991225E-2,-3.205880523E-2,5.303192139E-2,7.935570477E-2
1.764201258E0,7.051225007E-2,-4.122278094E-2,-1.392364502E-2,8.285627899E-2
1.769203654E0,1.146208346E-1,-4.075640440E-2,-3.280735016E-2,1.259973906E-1
1.774205998E0,1.013532504E-1,-5.222097039E-2,-1.827621460E-2,1.154709104E-1
1.779208341E0,1.545572877E-1,-6.828835607E-2,-6.239891052E-3,1.690863418E-1
1.784210685E0,1.313540787E-1,-4.858781397E-2,-8.558273315E-3,1.403136262E-1
1.789351206E0,1.326714158E-1,-1.970499754E-2,6.752967834E-2,1.501674031E-1
1.794353550E0,1.508654505E-1,-4.817812145E-2,4.320621490E-2,1.641593511E-1
1.799355946E0,9.774831682E-2,-6.443083286E-2,3.571605682E-2,1.223997646E-1
1.804358289E0,3.836341202E-2,-5.906371772E-2,5.204105377E-2,8.757023131E-2
1.809360633E0,7.692454755E-2,-3.473579884E-2,3.497314453E-2,9.136236958E-2
1.814362977E0,1.501214355E-1,-5.574709177E-2,-4.608821869E-2,1.666382536E-1
1.819469071E0,1.130651310E-1,8.724898100E-3,-3.620147705E-2,1.190394667E-1
1.824471414E0,7.400035113E-2,-8.000418544E-3,-9.768486023E-3,7.506984737E-2
1.829473810E0,3.087431937E-2,-1.518690586E-2,1.881599426E-2,3.921616180E-2
1.834476154E0,1.687402278E-2,-8.295774460E-4,1.390266418E-2,2.187932620E-2
1.839478498E0,1.264804602E-2,2.043099701E-2,4.277229309E-3,2.440683096E-2
1.844480841E0,3.438229114E-2,1.073688269E-2,-2.426910400E-2,4.343284475E-2
1.849603862E0,8.381903172E-3,8.249178529E-3,9.186744690E-3,1.492318750E-2
1.854606206E0,-2.195759490E-2,-6.148189306E-3,2.810764313E-2,3.619358794E-2
1.859608602E0,-7.290574163E-2,1.055993140E-2,4.686832428E-2,8.731207897E-2
1.864610946E0,-1.369568408E-1,6.957720220E-2,5.833625793E-2,1.643206691E-1
1.869613289E0,-1.190371215E-1,1.471036375E-1,1.290922165E-1,2.290722960E-1
1.874615633E0,-1.819347739E-1,1.359831244E-1,4.722404480E-2,2.319952208E-1
1.879739852E0,-2.373338044E-1,1.722949296E-1,-1.020717621E-2,2.934570904E-1
1.884742196E0,-2.881003022E-1,1.371535361E-1,-4.339885712E-2,3.220191569E-1
1.889744591E0,-2.162666023E-1,1.191397235E-1,-2.093305588E-1,3.237048035E-1
1.894746935E0,-1.896068752E-1,7.550736517E-2,-2.645902634E-1,3.341558570E-1
1.899749279E0,-1.833652556E-1,3.022579849E-2,-2.433595657E-1,3.062030276E-1
1.904751623E0,-1.137603074E-1,1.155634224E-2,-1.890420914E-1,2.209340827E-1
1.909864956E0,-2.157977596E-2,-2.246469259E-3,-7.578563690E-2,7.883017262E-2
1.914867300E0,2.044250071E-2,2.206209302E-2,3.415012360E-2,4.550673275E-2
1.919869696E0,6.067276001E-2,1.518325508E-2,1.597919464E-1,1.715959824E-1
1.924872039E0,8.755694330E-2,-1.090189815E-2,2.131080627E-1,2.306515036E-1
1.929874383E0,1.343598068E-1,-8.471250534E-3,2.517156601E-1,2.854559393E-1
1.934876727E0,1.200459301E-1,-1.096701622E-2,1.878433228E-1,2.231959110E-1
1.939999539E0,7.104024291E-2,-6.320014596E-3,1.435022354E-1,1.602484018E-1
1.945001883E0,3.696183860E-2,-2.319143713E-2,6.151771545E-2,7.542181106E-2
1.950004279E0,7.762402296E-3,-2.313832939E-2,-3.165721893E-2,3.997269927E-2
1.955006623E0,1.386968791E-2,-8.883908391E-3,-8.841800690E-2,8.993906835E-2
1.960008966E0,3.303867579E-2,-1.132515073E-2,-1.541996002E-1,1.581054390E-1
1.965011310E0,1.306411922E-1,-5.634911358E-2,-2.906837463E-1,3.236346460E-1
1.970130841E0,1.498849690E-1,-2.962489426E-2,-1.979637146E-1,2.500655326E-1
1.975133185E0,1.501452476E-1,-1.960034668E-2,-3.949928284E-2,1.564863007E-1
1.980135581E0,1.561403275E-1,-1.203399897E-2,6.775093079E-2,1.706306174E-1
1.985137925E0,1.873440295E-1,2.492770553E-3,1.812210083E-1,2.606627192E-1
1.990140268E0,1.085526049E-1,-1.868405938E-2,2.580957413E-1,2.806174866E-1
1.995142612E0,4.633203149E-2,-1.829937100E-3,2.963066101E-1,2.999126756E-1
2.000262039E0,2.138961852E-2,2.412129939E-2,2.439155579E-1,2.460368920E-1
2.005264383E0,-4.609113187E-2,-1.816004515E-4,1.016902924E-1,1.116482914E-1
2.010266727E0,-8.068517596E-2,-1.008063555E-2,-8.447837830E-2,1.172532014E-1
2.015269071E0,-8.096361905E-2,-1.282128692E-2,-1.764354706E-1,1.945481130E-1
2.020271466E0,-7.582302392E-2,-2.963599563E-2,-2.771158218E-1,2.888262486E-1
2.025273810E0,-5.776793510E-2,8.586071432E-3,-2.296600342E-1,2.369695893E-1
2.030410321E0,-5.004544556E-2,2.526896447E-2,-1.398334503E-1,1.506534467E-1
2.035412664E0,-3.267174959E-2,4.201609641E-2,-3.649997711E-2,6.453715138E-2
2.040415008E0,-5.055971444E-2,2.784418315E-2,3.746318817E-2,6.881187199E-2
2.045417352E0,-2.000849321E-2,-7.640093565E-3,1.274318695E-1,1.292191634E-1
2.050419748E0,4.179057479E-2,1.883090287E-2,1.501293182E-1,1.569709121E-1
2.055422091E0,2.509726584E-2,-1.441034675E-2,1.156206131E-1,1.191874868E-1
2.060531935E0,3.457492590E-2,-3.079465032E-2,2.438640594E-2,5.233003711E-2
2.065538237E0,4.618976265E-2,-3.527100384E-2,-6.698608398E-3,5.850136101E-2
2.070544487E0,7.650671154E-2,-2.555935085E-2,-1.377010345E-2,8.183014772E-2
2.075550789E0,8.018141985E-2,-2.067926526E-2,-6.116390228E-2,1.029452041E-1
2.080557039E0,1.097475290E-1,-4.014819860E-3,-4.639816284E-2,1.192200840E-1
2.085563341E0,8.241536468E-2,-1.837244630E-2,1.337718964E-2,8.549145174E-2
2.090671987E0,4.137168080E-2,-1.339589059E-2,3.702259064E-2,5.711162819E-2
2.095678289E0,7.689490914E-2,-2.271503210E-2,2.008438110E-2,8.265701483E-2
2.100684539E0,1.335019469E-1,1.565802097E-2,1.278972626E-2,1.350241480E-1
2.105690841E0,1.327771842E-1,3.687330335E-2,4.356098175E-2,1.445232863E-1
2.110697091E0,4.230541736E-2,5.057679117E-2,7.406806946E-2,9.916571512E-2
2.115703393E0,-5.649801344E-2,-1.639381051E-2,4.968452454E-2,7.700217220E-2
2.120791050E0,-3.578441963E-2,-1.396861672E-2,-5.378723145E-3,3.878888506E-2
2.125797352E0,1.298307627E-2,3.357250988E-2,-3.147411346E-2,4.781520164E-2
2.130803602E0,1.558559388E-2,1.430577040E-2,-6.922245026E-2,7.238310178E-2
2.135809904E0,-2.500901744E-2,4.503356665E-2,-4.964160919E-2,7.153853816E-2
2.140816154E0,-8.659330010E-2,5.174993724E-2,-1.717567444E-3,1.008930407E-1
2.145822456E0,-6.906343251E-2,-1.042796671E-2,-2.308464050E-2,7.356222419E-2
2.150921935E0,-7.538095862E-2,3.005947173E-2,-8.641242981E-3,8.161208148E-2
2.155928237E0,-5.092375726E-2,2.765703946E-2,-2.281951904E-2,6.228058553E-2
2.160934487E0,-3.410546482E-2,-2.001461387E-2,-5.825996399E-2,7.041300237E-2
2.165940789E0,-3.901534900E-2,-3.201767802E-3,-7.572174072E-4,3.915382680E-2
2.170947039E0,-6.970397383E-2,-5.429580808E-3,3.726100922E-2,7.922440990E-2
2.175953341E0,-4.291575775E-2,4.187390208E-3,6.545639038E-2,7.838262270E-2
2.181055998E0,-3.794137016E-2,-1.013599336E-2,2.215194702E-2,4.508874236E-2
2.186062300E0,-3.310825676E-2,-2.676597238E-2,-1.366519928E-2,4.471366250E-2
2.191068550E0,-3.781686351E-2,-2.177336812E-2,-1.354980469E-2,4.569236185E-2
2.196074852E0,-1.625224948E-2,2.233386040E-3,5.569458008E-3,1.732462089E-2
2.201081102E0,-6.847396493E-3,-1.919808984E-2,-3.485965729E-2,4.038129763E-2
2.206087404E0,-4.446098953E-2,2.412483096E-3,5.094814301E-2,6.766323182E-2
2.211187352E0,-2.194427699E-2,1.196614653E-2,7.664966583E-2,8.062202694E-2
2.216193654E0,-1.414257288E-2,-2.524405718E-3,7.114410400E-3,1.603121415E-2
2.221199904E0,-1.162181422E-2,-1.446564496E-2,-5.233383179E-2,5.552613258E-2
2.226206206E0,3.048595786E-2,-4.040382802E-2,-1.184072495E-1,1.287716571E-1
2.231212456E0,2.204469591E-2,-4.362195730E-3,-5.802345276E-2,6.222313428E-2
2.236218758E0,-9.668670595E-3,-1.983329654E-3,1.848220825E-2,2.095253706E-2
2.241336258E0,6.911739707E-3,7.556259632E-3,3.258228302E-2,3.415368753E-2
2.246342560E0,5.201884359E-2,1.453660429E-2,5.606555939E-2,7.784998331E-2
2.251348810E0,3.968457133E-2,1.304447651E-4,2.233982086E-2,4.554063914E-2
2.256355112E0,4.883291572E-2,-2.277940512E-3,-1.110363007E-2,5.013116069E-2
2.261361362E0,1.772910357E-2,-1.411610842E-2,2.462100983E-2,3.346311036E-2
2.266367664E0,1.551359892E-3,4.287848622E-2,9.329986572E-2,1.026929221E-1
2.271455321E0,-4.559971392E-3,3.050409257E-2,4.737854004E-2,5.653334467E-2
2.276461623E0,1.138523221E-3,1.116106659E-2,-1.953887939E-2,2.253072237E-2
2.281467873E0,-1.737956330E-2,1.093239337E-2,-4.788875580E-2,5.210469631E-2
2.286474175E0,-2.200966328E-2,-3.392353654E-3,-7.124423981E-2,7.464365376E-2
2.291480425E0,1.386485994E-3,6.209522486E-3,-1.062793732E-1,1.064696467E-1
2.296486727E0,7.698178291E-3,-5.493566394E-3,-6.500053406E-2,6.568493471E-2
2.301584487E0,-2.374973893E-2,-2.947822213E-3,1.156425476E-2,2.657953618E-2
2.306590789E0,2.346381545E-3,3.510420769E-2,7.560920715E-2,8.339402323E-2
2.311597039E0,-7.148675621E-3,2.770393342E-2,4.884910583E-2,5.661136486E-2
2.316603341E0,-9.126730263E-3,-1.066416502E-3,8.407211304E-2,8.457277718E-2
2.321609591E0,-1.327425241E-3,-1.539605856E-2,7.861423492E-2,8.011865332E-2
2.326615893E0,3.005576879E-2,2.275772393E-2,6.689071655E-3,3.828846974E-2
2.331712977E0,-2.443727478E-2,1.545944810E-2,-9.998321533E-3,3.059642737E-2
2.336719279E0,-5.049034953E-4,-1.383885741E-3,-5.742645264E-2,5.744534385E-2
2.341725529E0,2.746237069E-2,-1.333460212E-2,-9.020233154E-2,9.522843080E-2
2.346731831E0,-2.799837291E-2,-1.082831621E-2,-1.817989349E-2,3.509515416E-2
2.351738081E0,-1.919463277E-3,1.319140196E-2,5.086708069E-2,5.258476322E-2
2.356744383E0,3.138000518E-2,2.280960977E-2,2.431488037E-2,4.578423780E-2
2.361846883E0,1.932013780E-2,-1.526448131E-2,-2.017021179E-3,2.470507010E-2
2.366853185E0,9.889774024E-3,8.688040078E-3,3.838253021E-2,4.057718936E-2
2.371859435E0,2.434385568E-2,1.808319241E-2,1.430511475E-2,3.353000842E-2
2.376865737E0,1.239024103E-2,-1.536001265E-2,-6.866455078E-5,1.973455792E-2
2.381871987E0,-4.201382771E-2,-5.815550685E-3,2.304077148E-3,4.247694810E-2
2.386878289E0,-1.008198410E-2,2.502918988E-2,1.177978516E-2,2.944265763E-2
2.391985633E0,-3.525904939E-2,2.705418319E-2,3.542900085E-2,5.683611082E-2
2.396991935E0,-6.747525185E-2,2.426140755E-2,1.869201660E-3,7.172879076E-2
2.401998185E0,-5.459703133E-2,-1.408813894E-2,-5.991554260E-2,8.227504928E-2
2.407004487E0,-4.234497622E-2,9.749613702E-3,-8.317184448E-2,9.383873237E-2
2.412010737E0,-4.243517295E-2,3.819204867E-2,-5.871963501E-2,8.189854712E-2
2.417017039E0,-3.085442260E-2,-7.244184613E-3,-7.960605621E-2,8.568312430E-2
2.422117091E0,1.416221261E-3,-1.888541877E-2,-5.992698669E-2,6.284829719E-2
2.427123393E0,-3.043927252E-2,-1.612775028E-2,-7.156372070E-3,3.518333841E-2
2.432129643E0,9.778141975E-5,-2.057155967E-2,5.942440033E-2,6.288448126E-2
2.437135946E0,5.666754395E-2,-2.497793734E-2,3.042888641E-2,6.900018130E-2
2.442142196E0,6.081601977E-2,1.379176974E-3,6.580924988E-2,8.961778707E-2
2.447148498E0,1.006141528E-1,-1.093938947E-3,5.338287354E-2,1.139040633E-1
2.452243758E0,8.317263424E-2,-2.017632127E-2,2.680587769E-2,8.968459235E-2
2.457250060E0,3.995054215E-2,8.515156806E-3,8.121776581E-2,9.091138101E-2
2.462256310E0,2.849087119E-2,-2.965047956E-2,4.727649689E-2,6.265738454E-2
2.467262612E0,2.905561030E-2,8.570618927E-3,2.311992645E-2,3.810793878E-2
2.472268862E0,2.021657676E-2,-1.756294072E-2,-2.221298218E-2,3.479343960E-2
2.477275164E0,3.004110605E-2,-2.225413918E-2,-5.053901672E-2,6.286419470E-2
2.482389487E0,-7.983572781E-3,3.010359406E-2,-2.874183655E-2,4.237991244E-2
2.487395789E0,-2.214849740E-2,1.076077670E-2,-3.325366974E-2,4.137821653E-2
2.492402039E0,1.560021192E-2,8.156411350E-3,-5.910587311E-2,6.167169443E-2
2.497408341E0,-2.282650024E-2,2.230668068E-2,-2.060222626E-2,3.798800920E-2
2.502414591E0,-8.406651765E-2,2.921202779E-2,7.221317291E-2,1.146091807E-1
2.507420893E0,-3.784510493E-2,5.333468318E-3,4.310321808E-2,5.760716327E-2
2.512510946E0,-1.343499869E-2,7.129907608E-4,1.898956299E-2,2.327253850E-2
2.517517248E0,-2.280065045E-2,-2.303069830E-2,-1.917743683E-2,3.765709506E-2
2.522523498E0,-3.842592239E-3,8.008204401E-3,-3.564548492E-2,3.673550664E-2
2.527529800E0,5.997940898E-4,2.221117914E-2,1.929187775E-2,2.942571628E-2
2.532536050E0,-1.637536660E-2,7.685221732E-3,7.253646851E-3,1.948924465E-2
2.537542352E0,-6.377562135E-2,-2.329428494E-2,1.194477081E-2,6.893932941E-2
2.542666466E0,-3.925124183E-2,-1.542970538E-3,2.134799957E-2,4.470769318E-2
2.547672768E0,6.647914648E-3,3.174355626E-2,2.591896057E-2,4.151675144E-2
2.552679018E0,-2.844872326E-2,6.010500342E-2,1.857376099E-2,6.904292786E-2
2.557685321E0,-3.737932816E-2,-2.091094851E-3,-1.246547699E-2,3.945852212E-2
2.562691571E0,-1.819740981E-2,2.641662955E-3,-3.136634827E-2,3.635893165E-2
2.567697873E0,-1.862876117E-3,1.926417649E-2,-2.159881592E-2,2.900151121E-2
2.572780581E0,-1.190611720E-2,-7.115870714E-3,-3.566932678E-2,3.827129624E-2
2.577790008E0,-2.392167598E-2,-2.288997173E-3,-1.161575317E-2,2.669104366E-2
2.582799435E0,1.874696463E-2,-9.276926517E-3,1.461601257E-2,2.551740332E-2
2.587808862E0,7.505367696E-2,2.412559837E-2,-1.400852203E-2,8.007082872E-2
2.592818289E0,4.056952894E-2,4.988297820E-3,2.743721008E-3,4.096703307E-2
2.597827716E0,1.866574585E-2,2.483502030E-3,2.885150909E-2,3.445268390E-2
2.602912248E0,2.272412181E-3,-2.219215035E-3,5.949115753E-2,5.957588939E-2
2.607921675E0,1.725397259E-2,-2.361708879E-2,6.374073029E-2,7.013092863E-2
2.612931102E0,1.439176500E-3,1.962184906E-4,3.231906891E-2,3.235169154E-2
2.617940529E0,1.400235295E-2,-2.216368914E-3,3.537178040E-3,1.461129042E-2
2.622949956E0,-1.175683737E-2,-1.896665990E-2,-1.550197601E-2,2.717109996E-2
2.627959383E0,-5.883559957E-2,-9.445711970E-3,-2.012729645E-2,6.289640144E-2
2.633041623E0,-2.522439137E-2,1.905013621E-2,-6.271934509E-2,7.023456313E-2
2.638051050E0,-1.569791511E-2,2.593030781E-2,-2.893924713E-2,4.190805920E-2
2.643060477E0,-4.399845749E-2,-5.036443472E-4,-4.943847656E-3,4.427820625E-2
2.648069904E0,-3.178286180E-2,1.139511168E-2,-1.202964783E-2,3.584286960E-2
2.653079331E0,-2.679911256E-2,4.292443395E-3,3.320789337E-2,4.288801332E-2
2.658088758E0,-7.345825434E-4,-2.175424993E-2,-3.595542908E-2,4.203070166E-2
2.663174123E0,8.269481361E-3,-7.250264287E-3,-4.277801514E-2,4.416909817E-2
2.668183550E0,1.482984424E-2,-2.422630787E-3,2.717971802E-3,1.527025837E-2
2.673192977E0,7.349351794E-2,4.999890924E-3,2.702713013E-3,7.371296185E-2
2.678202404E0,7.455159724E-2,-3.298231959E-2,-2.582073212E-2,8.551306487E-2
2.683211831E0,7.565349340E-2,-1.601028442E-2,7.658004761E-3,7.770730537E-2
2.688221258E0,1.173372939E-1,-1.813246310E-2,5.223274231E-3,1.188448962E-1
2.693316727E0,6.644325703E-2,-8.568033576E-3,5.269050598E-2,8.523149081E-2
2.698326154E0,5.692905933E-2,-1.565863192E-2,8.075237274E-2,1.000352750E-1
2.703335581E0,1.210818291E-1,3.595322371E-3,4.444408417E-2,1.290310517E-1
2.708345008E0,1.133314595E-1,-1.315113902E-2,1.310348511E-3,1.140994705E-1
2.713354435E0,2.740938216E-2,-2.263101935E-2,-8.209228516E-3,3.648052495E-2
2.718363862E0,9.132340550E-3,2.967935801E-2,3.698444366E-2,4.829195594E-2
2.723444018E0,-1.352070644E-2,-6.343826652E-3,1.053428650E-2,1.827634623E-2
2.728453446E0,-5.505621433E-2,-2.058036625E-2,5.686759949E-3,5.905148136E-2
2.733462873E0,-5.834153295E-2,-1.326686144E-2,5.631446838E-3,6.009540142E-2
2.738472300E0,-3.097779676E-2,1.774070412E-2,-4.193115234E-2,5.506884793E-2
2.743481727E0,-4.732730985E-2,2.220395207E-2,-7.246494293E-2,8.935355449E-2
2.748491154E0,-5.228453130E-2,-2.072425187E-2,-9.798812866E-2,1.129815922E-1
2.753569175E0,1.801849157E-2,-6.124079227E-3,-1.019096375E-1,1.036713296E-1
2.758578602E0,2.573184669E-2,-2.010212839E-2,-7.253932953E-2,7.954984493E-2
2.763588029E0,2.413841337E-2,-3.396371007E-2,-7.781982422E-3,4.238815698E-2
2.768597456E0,6.330715865E-2,-4.765704274E-2,3.267860413E-2,8.571395001E-2
2.773606883E0,2.458795160E-2,-6.754234433E-3,1.108016968E-1,1.136978586E-1
2.778616310E0,7.925266027E-2,-3.281113505E-2,1.312561035E-1,1.567983401E-1
2.783703133E0,4.604646564E-2,-4.202103615E-2,8.739757538E-2,1.073516682E-1
2.788712560E0,4.904942214E-2,3.482088447E-3,8.903694153E-2,1.017130656E-1
2.793721987E0,4.262841493E-2,3.187298775E-2,5.977821350E-2,8.004063916E-2
2.798731414E0,9.975694120E-3,-8.914455771E-3,-7.244110107E-3,1.521378080E-2
2.803740841E0,2.690942585E-2,-1.842847466E-2,-8.558082581E-2,9.158495304E-2
2.808750268E0,1.725886017E-2,1.257244498E-2,-2.310371399E-2,3.145975568E-2
2.813829435E0,3.387331963E-2,3.143686056E-2,-6.284713745E-3,4.663877798E-2
2.818838862E0,-4.654690623E-3,2.633020282E-3,-5.849361420E-2,5.873756756E-2
2.823848289E0,9.040266275E-3,-4.393205047E-3,-5.087280273E-2,5.185623128E-2
2.828857716E0,2.045327425E-2,-4.286170006E-3,1.844501495E-2,2.787339695E-2
2.833867143E0,6.001576781E-3,2.893477678E-3,5.867481232E-2,5.905188174E-2
2.838876571E0,3.685674071E-2,-1.131501794E-2,-8.328437805E-3,3.944378079E-2
2.843966414E0,1.751825213E-2,-8.721277118E-3,1.245498657E-3,1.960869958E-2
2.848975841E0,-4.865158722E-2,-6.307676435E-3,5.824279785E-2,7.615108156E-2
2.853985268E0,-4.956001043E-2,3.393824399E-2,8.625411987E-2,1.051083833E-1
2.858994696E0,-4.085478559E-2,1.921140403E-2,2.138423920E-2,4.995475189E-2
2.864004123E0,-5.597745255E-2,3.791671991E-2,-1.206207275E-2,6.867784535E-2
2.869013550E0,-9.973950684E-2,2.310512960E-2,-7.219314575E-3,1.026349587E-1
2.874093966E0,-4.868467897E-2,2.525147051E-2,-6.417560577E-2,8.441767058E-2
2.879103393E0,-8.864062279E-2,6.001323462E-3,-3.513431549E-2,9.553845308E-2
2.884112821E0,-5.761848018E-2,-1.060794294E-2,-9.422588348E-2,1.109546521E-1
2.889122248E0,-1.802971214E-2,1.346001029E-2,-9.818077087E-2,1.007258962E-1
2.894131675E0,-1.703891531E-2,-3.160580993E-3,-5.696582794E-2,5.954342499E-2
2.899141102E0,-8.514381945E-3,-7.713079453E-3,-1.134586334E-2,1.614666868E-2
2.904236831E0,-2.784731612E-2,-1.687012613E-2,9.090423584E-2,9.655907137E-2
2.909246258E0,-4.385672137E-2,3.095422685E-2,1.590366364E-1,1.678518033E-1
2.914255685E0,-1.614290848E-2,1.635608077E-2,1.268196106E-1,1.288849429E-1
2.919265112E0,1.783914864E-3,-9.999185801E-3,4.736137390E-2,4.843826800E-2
2.924274539E0,-1.699477434E-4,-2.415327728E-2,-5.755996704E-2,6.242242779E-2
2.929283966E0,-2.870511636E-2,-9.682625532E-3,-6.183147430E-2,6.885396254E-2
2.934364852E0,-4.042611644E-2,1.633505523E-2,-1.618289948E-2,4.650796873E-2
2.939374279E0,5.915760994E-5,1.853976399E-2,-4.217720032E-2,4.607214533E-2
2.944383706E0,9.220525622E-3,4.200845957E-3,-7.270431519E-2,7.340696592E-2
2.949393133E0,8.491210639E-3,-1.234258711E-2,-3.883552551E-2,4.162497035E-2
2.954402560E0,6.927168369E-2,-9.744212031E-3,-4.325580597E-2,8.224707034E-2
2.959411987E0,5.363230407E-2,1.896341890E-2,4.025554657E-2,6.968891107E-2
2.964488081E0,4.597419500E-2,4.778191447E-3,9.218597412E-2,1.031247378E-1
2.969497508E0,-2.017597854E-2,7.077753544E-3,1.151676178E-1,1.171355834E-1
2.974506935E0,-7.330857217E-3,1.162946969E-2,5.956268311E-2,6.112854694E-2
2.979516362E0,4.558368027E-2,2.094626427E-2,-2.645874023E-2,5.671580757E-2
2.984525789E0,2.653288096E-2,-2.439929545E-2,-3.336811066E-2,4.911975366E-2
2.989535216E0,-2.112666145E-2,-2.893161774E-2,-2.833843231E-2,4.567757737E-2
2.994625789E0,1.201174408E-2,4.635810852E-3,-5.898094177E-2,6.036989507E-2
2.999635216E0,6.357286870E-2,9.520538151E-3,-8.223819733E-2,1.043804167E-1
3.004644643E0,7.865523547E-2,-2.369636297E-2,-7.916831970E-2,1.140867500E-1
3.009654071E0,8.602023125E-2,1.463082433E-2,-6.424331665E-2,1.083547181E-1
3.014663498E0,6.755431741E-2,-3.050635755E-2,4.795265198E-2,8.828182420E-2
3.019672925E0,2.895403653E-2,-8.803471923E-3,1.188201904E-1,1.226135188E-1
3.024756831E0,3.438457102E-2,-8.659437299E-3,1.534566879E-1,1.574999671E-1
3.029766258E0,9.940315038E-2,-1.812443137E-2,8.090209961E-2,1.294396811E-1
3.034775685E0,6.616994739E-2,-2.508388460E-2,1.608181000E-2,7.256919330E-2
3.039785112E0,6.135732681E-2,-3.446434438E-2,-2.444171906E-2,7.449771954E-2
3.044794539E0,3.241541237E-2,-8.236631751E-3,-4.799652100E-2,5.850014606E-2
3.049803966E0,3.464929014E-2,8.322700858E-3,-2.384376526E-2,4.287616819E-2
3.054887404E0,1.234099269E-3,-3.448793292E-2,-6.640625000E-2,7.483802882E-2
3.059896831E0,2.015030384E-2,-5.556185544E-2,-8.485603333E-2,1.034103521E-1
3.064906258E0,2.465494722E-2,6.579428911E-3,3.745079041E-3,2.579110165E-2
3.069915685E0,7.845342159E-3,6.542325020E-3,2.746963501E-2,2.930754609E-2
3.074925112E0,-1.078433543E-2,4.694158584E-2,6.762218475E-2,8.302152879E-2
3.079934539E0,-2.868913114E-3,4.403641075E-2,6.705093384E-2,8.026994371E-2
3.085020789E0,-2.805532515E-2,1.977346092E-2,9.470939636E-3,3.560603494E-2
3.090032768E0,-9.322230518E-2,1.007149369E-2,1.651096344E-2,9.520737934E-2
3.095044696E0,-5.326992273E-2,2.900915593E-2,9.238243103E-3,6.135601789E-2
3.100056623E0,-4.479292780E-2,3.343148530E-2,-2.647972107E-2,6.184857491E-2
3.105068550E0,-5.136790127E-2,9.310133755E-3,-1.022796631E-1,1.148323532E-1
3.110080477E0,-4.214249179E-2,2.018570900E-3,-1.465587616E-1,1.525107696E-1
3.115149852E0,-2.640002593E-2,4.551976919E-3,-1.096925735E-1,1.129165291E-1
3.120161831E0,-1.552709565E-2,4.737943411E-3,-2.799892426E-2,3.236477354E-2
3.125173758E0,5.686482042E-2,1.432138681E-2,-8.749961853E-3,5.928972722E-2
3.130185685E0,4.344367236E-2,3.570149094E-2,5.547237396E-2,7.898818517E-2
3.135197612E0,3.793614358E-2,1.403985918E-2,6.689071655E-2,7.817056093E-2
3.140209539E0,9.292572737E-3,4.437625408E-3,8.771228790E-2,8.831472061E-2
3.145293602E0,8.340514451E-2,1.872252673E-2,7.509994507E-2,1.137846777E-1
3.150305529E0,8.325000107E-2,3.035563231E-2,5.546379089E-2,1.045383145E-1
3.155317508E0,-2.370513976E-3,-3.294974566E-3,1.698684692E-2,1.746508409E-2
3.160329435E0,8.258819580E-4,1.332542300E-2,2.634048462E-2,2.953083319E-2
3.165341362E0,1.566775143E-3,1.317778230E-2,7.110595703E-3,1.505554057E-2
3.170353289E0,-3.813390434E-2,-3.700911999E-3,-2.383708954E-2,4.512314536E-2
3.175437768E0,-3.964317963E-2,1.054643840E-2,-3.789615631E-2,5.584736088E-2
3.180449696E0,2.246949077E-2,4.362645000E-2,-6.846427917E-2,8.423480681E-2
3.185461675E0,-3.264846280E-2,2.670034021E-2,-4.413509369E-2,6.104700472E-2
3.190473602E0,-9.422315657E-2,-1.156695187E-2,-1.288509369E-2,9.580095641E-2
3.195485529E0,-5.297868699E-2,-2.095580101E-2,-5.650520325E-3,5.725220739E-2
3.200497456E0,2.587596327E-2,3.402744979E-2,1.340293884E-2,4.480035250E-2
3.205561414E0,-7.736124098E-3,2.823859453E-3,1.415252686E-3,8.356119820E-3
3.210573393E0,-2.453973144E-2,-6.790310144E-3,-4.610729218E-2,5.267057170E-2
3.215585321E0,-3.650486469E-2,-1.400113106E-2,-2.963066101E-3,3.920990408E-2
3.220597248E0,2.780275047E-2,2.651471645E-2,1.813888550E-3,3.846184231E-2
3.225609175E0,1.091078669E-2,7.200963795E-3,2.555274963E-2,2.870265074E-2
3.230621102E0,3.196109086E-2,-2.129776776E-2,-3.642082214E-2,5.292997758E-2
3.235694227E0,-1.541398466E-3,9.725086391E-3,-7.612228394E-3,1.244585215E-2
3.240706206E0,9.712949395E-4,9.607501328E-3,2.570724487E-2,2.746106215E-2
3.245718133E0,5.993053317E-3,-4.711136222E-3,-7.766723633E-3,1.088271513E-2
3.250730060E0,-2.218068019E-2,1.445096731E-2,1.130104065E-2,2.878413712E-2
3.255741987E0,-9.682860225E-3,2.519845963E-3,3.971099854E-2,4.095205502E-2
3.260753914E0,-1.154169440E-2,9.433068335E-3,6.116867065E-3,1.611240363E-2
3.265821258E0,-5.603554845E-2,-2.900063992E-4,-1.769447327E-2,5.876360419E-2
3.270833237E0,-3.137650713E-2,-1.230533421E-2,-4.368305206E-2,5.517350349E-2
3.275845164E0,-3.569051996E-2,1.135991514E-2,-3.857135773E-2,5.376439829E-2
3.280857091E0,-3.547517583E-2,-6.482005119E-4,-2.637290955E-2,4.420903326E-2
3.285869018E0,-2.601849288E-2,4.124790430E-3,-4.515457153E-2,5.227725316E-2
3.290880946E0,4.479534924E-3,1.679465175E-3,-4.002285004E-2,4.030775808E-2
3.295948185E0,1.803414524E-2,-6.415843964E-4,-4.050254822E-3,1.849450159E-2
3.300960164E0,-3.994241357E-3,1.125723124E-2,1.736736298E-2,2.107853211E-2
3.305972091E0,3.133102506E-2,-1.965013146E-2,1.484966278E-2,3.985314646E-2
3.310984018E0,8.045726269E-2,-1.714736223E-2,5.226135254E-3,8.243006516E-2
3.315995946E0,8.403822035E-2,1.631999761E-2,1.231384277E-2,8.648927983E-2
3.321007873E0,1.137721688E-1,-3.778338432E-4,-6.789207458E-3,1.139751836E-1
3.326071883E0,1.526501775E-1,-3.346005082E-2,-2.810573578E-2,1.587815609E-1
3.331083862E0,1.154018864E-1,-6.931096315E-3,1.489257812E-2,1.165651078E-1
3.336095789E0,1.142002419E-1,-2.121554315E-2,2.189540863E-2,1.181998453E-1
3.341107716E0,2.006417215E-1,-6.771877408E-3,3.376007080E-4,2.007562520E-1
3.346119643E0,1.558647752E-1,-1.609973609E-2,5.022525787E-2,1.645466687E-1
3.351131571E0,6.705295295E-2,-3.733147681E-2,7.118415833E-2,1.046753173E-1
3.356207768E0,1.028844714E-1,3.326579928E-3,2.782440186E-2,1.066324431E-1
3.361219748E0,1.880343854E-1,-1.341857016E-2,1.095771790E-2,1.888307700E-1
3.366231675E0,1.227632388E-1,-6.113395095E-3,3.736495972E-3,1.229721424E-1
3.371243602E0,3.670880198E-2,-2.510349452E-2,1.082801819E-2,4.577081558E-2
3.376255529E0,-7.828101516E-3,-3.691217303E-2,4.160976410E-2,5.617081235E-2
3.381267456E0,-9.025663137E-3,-3.434851766E-3,4.600429535E-2,4.700697812E-2
3.386349643E0,-2.672099695E-2,1.203134656E-3,1.947689056E-2,3.308789018E-2
3.391361623E0,-1.356115192E-2,1.768127829E-2,-9.202003479E-3,2.410828305E-2
3.396373550E0,-6.490749121E-2,2.452162653E-2,-3.763961792E-2,7.893689517E-2
3.401385477E0,-1.208368093E-1,7.601536810E-3,-3.733158112E-2,1.267002951E-1
3.406397404E0,-1.123676449E-1,-9.021311998E-3,-3.702259064E-2,1.186530400E-1
3.411409331E0,-8.775588870E-2,1.962958276E-2,-6.046772003E-2,1.083640240E-1
3.416477196E0,-6.588602811E-2,3.368262202E-2,-2.670574188E-2,7.866819164E-2
3.421489175E0,-1.249106973E-1,2.370852977E-2,3.290462494E-2,1.313297036E-1
3.426501102E0,-9.797471762E-2,-4.978209734E-3,-2.200508118E-2,1.005388058E-1
3.431513029E0,-7.606691122E-2,4.478424788E-3,1.618766785E-2,7.789911336E-2
3.436524956E0,-7.788994908E-2,-1.465056837E-2,1.605224609E-2,8.086505998E-2
3.441536883E0,-3.683491796E-2,1.167052984E-2,-5.460739136E-3,3.902348165E-2
3.446604800E0,-2.969305962E-2,6.786771119E-3,-2.916908264E-2,4.217313640E-2
3.451616779E0,-6.309551746E-2,-5.130574107E-3,-4.158020020E-4,6.330513411E-2
3.456628706E0,5.927123129E-3,-5.123630166E-3,-4.079532623E-2,4.154083554E-2
3.461640633E0,2.216333151E-2,3.294304758E-2,1.418495178E-2,4.216243001E-2
3.466652560E0,-4.694139212E-2,-2.999961376E-3,4.732418060E-2,6.672384980E-2
3.471664487E0,-4.399566725E-2,-1.473185420E-2,2.079868317E-2,5.084517171E-2
3.476737508E0,-8.472800255E-4,-2.343505621E-4,-1.500606537E-2,1.503179302E-2
3.481749487E0,1.823783666E-2,7.014237344E-3,8.875846863E-3,2.146156726E-2
3.486761414E0,3.468447924E-2,3.315479308E-2,-2.920627594E-2,5.617170069E-2
3.491773341E0,4.592926800E-2,-1.688887179E-2,-6.221675873E-2,7.915590134E-2
3.496785268E0,4.262281209E-2,-1.425181329E-2,-2.605915070E-2,5.195091556E-2
3.501797196E0,5.623376369E-2,2.864430845E-2,-1.633739471E-2,6.518928633E-2
3.506872664E0,5.552494526E-2,-1.438994706E-2,1.943302155E-2,6.056180685E-2
3.511884643E0,6.200082600E-2,-2.602890134E-2,1.927375793E-2,6.995058166E-2
3.516896571E0,2.845620364E-2,7.513619959E-3,3.098964691E-2,4.273836948E-2
3.521908498E0,4.103630781E-4,-4.462108016E-3,6.160736084E-2,6.177010374E-2
3.526920425E0,2.718231827E-2,2.404532582E-2,2.307987213E-2,4.300856447E-2
3.531932352E0,1.259505749E-3,1.440931857E-2,-7.997512817E-3,1.652800737E-2
3.537002925E0,-2.955161035E-3,-1.900489628E-2,1.566886902E-3,1.929699961E-2
3.542014904E0,-9.828247130E-3,-7.056966424E-3,-1.745319366E-2,2.123697685E-2
3.547026831E0,-2.807080746E-3,-2.836261690E-2,-6.006622314E-2,6.648510286E-2
3.552038758E0,-5.448393524E-3,-1.385651529E-2,-1.680374146E-2,2.245114106E-2
3.557050685E0,-5.588956177E-3,7.499091327E-3,9.466171265E-3,1.330718604E-2
3.562062612E0,8.575439453E-3,1.447467506E-2,1.889038086E-2,2.529626196E-2
3.567137143E0,-1.998319104E-2,-1.646055281E-2,1.635837555E-2,3.062473141E-2
3.572149123E0,-7.898658514E-4,-1.857852936E-2,-1.703357697E-2,2.521762053E-2
3.577161050E0,1.333661377E-2,5.348190665E-3,-2.876949310E-2,3.215823602E-2
3.582172977E0,1.309144497E-2,5.215883255E-3,7.102966309E-3,1.578111212E-2
3.587184904E0,2.932126075E-2,-1.846294105E-2,-1.908302307E-2,3.955727864E-2
3.592196883E0,3.549952060E-2,-4.907025397E-2,-5.455017090E-2,8.150967386E-2
3.597267873E0,9.362134337E-2,-3.676410019E-2,-5.171203613E-2,1.130959313E-1
3.602281831E0,1.318491399E-1,-4.594089091E-2,-3.226566315E-2,1.433032944E-1
3.607295789E0,1.647475660E-1,-4.553897679E-2,-4.861259460E-2,1.777040890E-1
3.612309748E0,1.313799322E-1,-7.586425543E-2,2.306938171E-2,1.534544499E-1
3.617323706E0,1.466857642E-1,-6.312417984E-2,5.613994598E-2,1.692721744E-1
3.622337664E0,1.983242035E-1,8.687689900E-3,1.768198013E-1,2.658443300E-1
3.627407196E0,2.070932090E-1,-1.997719705E-2,1.111965179E-1,2.359053862E-1
3.632421154E0,9.969244897E-2,-3.177167475E-2,5.562019348E-2,1.184973823E-1
3.637435112E0,1.493112743E-2,1.511871815E-3,9.789943695E-2,9.904304154E-2
3.642449071E0,4.511068761E-2,-2.011895180E-2,2.817440033E-2,5.686425232E-2
3.647463029E0,9.326200187E-2,-1.186355948E-3,-1.051025391E-1,1.405195792E-1
3.652476987E0,9.969157726E-2,1.046144217E-2,-1.659946442E-1,1.939125428E-1
3.657532716E0,-3.873690963E-2,1.973814517E-2,-2.921009064E-2,5.237720819E-2
3.662546675E0,-6.859380007E-2,2.914697677E-2,-4.644393921E-4,7.453100943E-2
3.667560633E0,-6.241364032E-2,2.179619670E-2,-1.472091675E-2,6.772918188E-2
3.672574591E0,-8.252054453E-2,2.627996355E-2,2.023696899E-3,8.662777905E-2
3.677588550E0,-1.073647588E-1,1.900581270E-2,2.002716064E-3,1.090523876E-1
3.682602508E0,-1.247713938E-1,6.937220693E-3,4.236412048E-2,1.319497800E-1
3.687664956E0,-1.136253551E-1,2.342239022E-2,1.622200012E-3,1.160256920E-1
3.692678914E0,-1.501912773E-1,6.462261081E-3,-1.502704620E-2,1.510794251E-1
3.697692873E0,-1.557790786E-1,6.219804287E-3,-3.628540039E-2,1.600701021E-1
3.702706831E0,-1.022984236E-1,-5.847930908E-3,-5.261230469E-2,1.151834206E-1
3.707720789E0,-3.573699668E-2,3.222745657E-2,-1.091814041E-1,1.193160546E-1
3.712734748E0,-5.106859654E-2,8.378230035E-3,-1.035079956E-1,1.157242474E-1
3.717805685E0,-8.972945809E-2,8.379243314E-3,1.886367798E-3,9.013959037E-2
3.722819643E0,-7.955887914E-2,6.053697318E-2,9.451580048E-2,1.375775305E-1
3.727833602E0,-4.287593812E-2,4.104512185E-2,7.947254181E-2,9.919139579E-2
3.732847560E0,-3.980882838E-2,3.126940131E-2,2.892208099E-2,5.830098665E-2
3.737861518E0,-6.300978363E-3,-1.173433661E-2,-6.951332092E-3,1.502391434E-2
3.742875477E0,-6.591081619E-3,-2.582205832E-2,-3.302001953E-2,4.243280267E-2
3.747927768E0,2.517454326E-3,-1.371252537E-2,-1.136207581E-2,1.798520767E-2
3.752941727E0,-5.024008453E-3,1.482041180E-2,1.486587524E-2,2.158424225E-2
3.757955685E0,-3.103858978E-2,2.184005082E-2,1.474189758E-2,4.071492870E-2
3.762969643E0,-3.973928466E-2,2.167496085E-2,4.074573517E-2,6.090344496E-2
3.767983602E0,-2.683310583E-2,1.433192194E-2,3.565025330E-2,4.686534023E-2
3.772997560E0,-1.894142479E-2,-9.578689933E-3,-1.216316223E-2,2.446367489E-2
3.778061727E0,-1.147678494E-2,-1.898433268E-2,-2.631568909E-2,3.441855564E-2
3.783075685E0,5.165502429E-3,-1.173530519E-2,-5.222702026E-2,5.377788996E-2
3.788089643E0,-3.317540511E-2,2.628368884E-2,-1.378345490E-2,4.451318268E-2
3.793103602E0,-1.413331553E-2,2.618437260E-2,-1.366615295E-2,3.274348352E-2
3.798117560E0,-9.450491518E-3,-1.672537625E-2,-4.047393799E-3,1.963240681E-2
3.803131518E0,-1.430883631E-2,-9.391292930E-3,5.490303040E-3,1.797449880E-2
3.808192300E0,7.002472878E-3,2.578943968E-4,2.445125580E-2,2.543550758E-2
3.813206258E0,2.090808749E-2,-1.155348122E-2,5.246162415E-3,2.445717218E-2
3.818220216E0,2.271551639E-2,2.968057990E-3,7.582664490E-3,2.413091075E-2
3.823234175E0,1.216451153E-1,-1.635730267E-3,-3.760910034E-2,1.273367744E-1
3.828248133E0,1.432128400E-1,3.144741058E-3,-3.728675842E-2,1.480206380E-1
3.833262091E0,1.406376660E-1,8.626580238E-4,-3.458786011E-2,1.448309958E-1
3.838337248E0,1.357974708E-1,-3.217539191E-2,-2.716064453E-2,1.421756292E-1
3.843351206E0,1.575583816E-1,-5.063655972E-2,-1.504516602E-2,1.661778018E-1
3.848365164E0,1.607584953E-1,-5.247011781E-2,5.634975433E-2,1.782461834E-1
3.853379123E0,1.408534050E-1,-3.285571933E-2,8.913707733E-2,1.698958462E-1
3.858393081E0,2.235199958E-1,2.207107842E-2,9.076404572E-2,2.422528287E-1
3.863407039E0,2.268424034E-1,5.064338446E-3,6.856918335E-3,2.270025128E-1
3.868460581E0,5.967725813E-2,-1.164558530E-2,5.905246735E-2,8.475959353E-2
3.873474539E0,-8.595231175E-2,-4.964593053E-2,1.488113403E-1,1.788779845E-1
3.878488498E0,2.877343446E-2,7.691949606E-3,2.164554596E-2,3.681855890E-2
3.883502456E0,4.183506966E-2,-8.933678269E-3,-9.732246399E-2,1.063091984E-1
3.888516414E0,-2.469497547E-2,-4.204867780E-2,-1.440238953E-1,1.520553042E-1
3.893530373E0,-1.280039549E-2,2.731064707E-2,-7.630634308E-2,8.205107898E-2
3.898593133E0,-4.376714304E-2,5.664855242E-3,-3.290939331E-2,5.505162634E-2
3.903607091E0,-1.170756593E-1,-4.420141876E-2,-6.504058838E-3,1.253107266E-1
3.908621050E0,-1.371954381E-1,2.275170386E-2,2.443122864E-2,1.411988428E-1
3.913635008E0,-5.494960397E-2,5.583615601E-2,3.610324860E-2,8.625879581E-2
3.918648966E0,4.498879611E-2,2.202430367E-2,-3.308677673E-2,6.003162935E-2
3.923662925E0,5.845561624E-3,7.602423429E-3,-6.368732452E-2,6.440530054E-2
3.928719956E0,-7.330898196E-2,-1.895248890E-3,-3.226757050E-2,8.011863023E-2
3.933733914E0,-7.019682229E-2,2.939686179E-3,6.777381897E-2,9.761929190E-2
3.938747873E0,-4.526313022E-2,6.596893072E-4,2.444648743E-2,5.144722436E-2
3.943761831E0,-7.021635026E-2,1.270348579E-2,2.899074554E-2,7.702063179E-2
3.948775789E0,-9.749092162E-2,-2.761371434E-2,-2.135276794E-3,1.013486873E-1
3.953789748E0,-7.997243106E-2,-1.234605908E-3,7.384300232E-3,8.032211322E-2
3.958854123E0,-3.897309303E-3,1.051183790E-2,-2.830791473E-2,3.044709826E-2
3.963868081E0,-3.534926102E-2,5.481079221E-3,-4.707431793E-2,5.912363227E-2
3.968882039E0,-6.880788505E-2,1.722647250E-2,-3.242492676E-2,7.799136026E-2
3.973895998E0,-6.149820983E-2,7.598862052E-3,-1.789855957E-2,6.449907714E-2
3.978909956E0,1.717113703E-2,2.898462862E-2,-1.537132263E-2,3.703017962E-2
3.983923914E0,-2.317702770E-2,3.366695344E-2,3.701972961E-2,5.514615805E-2
3.988989852E0,-5.130869895E-2,-6.980255246E-3,2.008152008E-2,5.553894130E-2
3.994003810E0,-5.722701550E-3,-1.397980750E-2,5.661010742E-3,1.613168848E-2
3.999017768E0,8.755885065E-3,1.465927064E-2,5.312442780E-2,5.580111619E-2
4.004031727E0,-6.901182979E-2,1.904489845E-2,1.025590897E-1,1.250748083E-1
4.009045685E0,-3.917955980E-2,-4.130005836E-4,4.468154907E-2,5.942768128E-2
4.014059643E0,-5.488767847E-2,1.845536381E-2,3.917694092E-3,5.803969356E-2
4.019118862E0,-5.657336116E-2,8.606351912E-3,-4.600524902E-2,7.342409294E-2
4.024132821E0,-4.198278114E-2,8.342944086E-3,-7.888126373E-2,8.974637818E-2
4.029146779E0,-3.268054500E-2,-1.160606742E-3,-7.821941376E-2,8.477996059E-2
4.034160737E0,-4.256470874E-2,2.029666305E-2,-4.905509949E-2,6.804492447E-2
4.039174696E0,-2.153505012E-2,3.207367659E-2,-4.388999939E-2,5.847060082E-2
4.044188654E0,1.119638979E-2,-2.043926716E-2,1.824569702E-2,2.959777435E-2
4.049250998E0,2.020619810E-2,2.023565769E-2,4.185295105E-2,5.068966162E-2
4.054264956E0,2.470747381E-2,-2.257221937E-2,4.863262177E-2,5.903470377E-2
4.059278914E0,2.214784175E-2,-9.881407022E-4,6.247997284E-2,6.629668410E-2
4.064292873E0,5.511507392E-3,-1.273790002E-2,5.720806122E-2,5.886758938E-2
4.069306831E0,2.010436356E-2,-1.029202342E-2,2.347087860E-2,3.257289245E-2
4.074320789E0,6.173089147E-3,-1.514902711E-2,-1.236343384E-2,2.050498837E-2
4.079400112E0,-7.740989327E-3,-8.058547974E-4,4.365921021E-3,8.923765129E-3
4.084414071E0,9.233906865E-3,1.336631179E-2,-1.467800140E-2,2.189445254E-2
4.089428029E0,9.334661067E-3,1.393392682E-3,-3.831100464E-2,3.945643822E-2
4.094441987E0,-1.447669789E-2,-1.285529137E-2,-2.611446381E-2,3.250843764E-2
4.099455946E0,-7.414095104E-3,-3.177151084E-3,-1.401710510E-2,1.617227042E-2
4.104469904E0,-2.940371633E-3,-1.981374621E-2,-1.152229309E-2,2.310830073E-2
4.109513133E0,2.054715902E-2,1.124922186E-2,-3.280353546E-2,4.030884115E-2
4.114528706E0,4.812315851E-2,2.547607571E-2,-4.915237427E-2,7.335410496E-2
4.119544279E0,1.909365952E-1,-3.226518631E-3,-8.436393738E-2,2.087689338E-1
4.124559852E0,2.156895995E-1,-1.970912516E-2,-7.889270782E-2,2.305092456E-1
4.129575425E0,1.693860590E-1,-1.699820161E-2,2.392864227E-2,1.719103132E-1
4.134590998E0,2.404413372E-1,4.642441869E-3,4.987239838E-2,2.456030233E-1
4.139645164E0,1.697756648E-1,4.273147136E-2,1.611070633E-1,2.379185593E-1
4.144660737E0,1.012550890E-1,1.630978286E-2,2.191371918E-1,2.419498107E-1
4.149676310E0,1.218252927E-1,-2.662394941E-2,8.188438416E-2,1.491820666E-1
4.154691883E0,6.367620826E-2,-3.599388897E-2,-1.621627808E-2,7.492120672E-2
4.159707456E0,-3.241072223E-2,-1.925747097E-2,2.428531647E-2,4.484508556E-2
4.164723029E0,4.953119159E-2,-3.378093243E-4,-1.042060852E-1,1.153792063E-1
4.169779852E0,2.807155252E-2,4.455225915E-2,-1.033430099E-1,1.159857472E-1
4.174795425E0,-6.241446733E-2,2.493078262E-2,-4.309749603E-2,7.984048985E-2
4.179810998E0,1.847574115E-2,1.275496185E-2,-9.499835968E-2,9.761521605E-2
4.184826571E0,-2.272038907E-2,-8.613660932E-3,-6.806850433E-2,7.227539357E-2
4.189842143E0,-6.083314866E-2,-3.672897816E-3,8.519172668E-3,6.153648070E-2
4.194857716E0,-1.050771996E-1,1.558515429E-2,7.021236420E-2,1.273337779E-1
4.199913081E0,-2.293980494E-2,2.998669446E-2,5.062294006E-2,6.315155228E-2
4.204928654E0,4.869244993E-2,4.875557125E-2,-4.437446594E-3,6.904890542E-2
4.209944227E0,5.337439477E-3,-4.002466798E-3,-6.775856018E-3,9.508955012E-3
4.214959800E0,1.419111341E-2,-4.914142191E-2,-4.234790802E-2,6.640491218E-2
4.219975373E0,7.486972213E-2,-8.228570223E-3,-4.911136627E-2,8.991724505E-2
4.224990946E0,6.171217561E-2,6.108030677E-3,1.190185547E-3,6.202513360E-2
4.230044383E0,-1.263123006E-2,-8.232250810E-3,5.344295502E-2,5.552897772E-2
4.235059956E0,2.075406909E-2,-2.234834433E-2,1.736545563E-2,3.509613835E-2
4.240075529E0,1.060703024E-1,-2.679313719E-2,-4.157066345E-3,1.094808771E-1
4.245091102E0,8.403695375E-2,-3.827506304E-2,2.913475037E-2,9.682987000E-2
4.250106675E0,2.924226969E-2,-6.623767316E-2,3.126621246E-2,7.886771028E-2
4.255122248E0,1.191779971E-3,-3.716181219E-2,4.762840271E-2,6.042255679E-2
4.260173914E0,9.431309998E-3,-1.254349947E-3,6.384944916E-2,6.455443563E-2
4.265189487E0,-2.469902113E-2,1.741261780E-2,1.108102798E-1,1.148571244E-1
4.270205008E0,-8.209291846E-2,-3.534252942E-2,4.810428619E-2,1.015005616E-1
4.275220581E0,-8.938069642E-2,-2.330978215E-2,-3.545475006E-2,9.894086182E-2
4.280236154E0,-1.350836009E-1,1.707756519E-2,-3.754520416E-2,1.412404503E-1
4.285251727E0,-1.357917488E-1,3.347617388E-2,-6.574535370E-2,1.545396544E-1
4.290321414E0,-1.204360127E-1,4.261136800E-2,-8.895301819E-2,1.556701683E-1
4.295336935E0,-8.445115387E-2,3.747050464E-2,-1.072120667E-1,1.415290194E-1
4.300352560E0,-6.813565642E-2,3.717477620E-2,-7.305335999E-2,1.065890476E-1
4.305368081E0,-1.111393720E-1,2.526218444E-2,-1.779747009E-2,1.153554850E-1
4.310383706E0,-9.883414209E-2,1.804477721E-2,2.273941040E-2,1.030091375E-1
4.315399227E0,-5.316603929E-2,3.929002583E-2,5.580997467E-2,8.651639808E-2
4.320478081E0,-3.623073548E-2,3.503426909E-3,2.446460724E-2,4.385723659E-2
4.325493602E0,-2.449709177E-2,-2.491211891E-2,-6.616592407E-3,3.555981537E-2
4.330509227E0,-3.413712606E-2,1.094470173E-2,5.683898926E-4,3.585321378E-2
4.335524748E0,3.686425835E-2,8.598439395E-3,-1.843547821E-2,4.210431760E-2
4.340540373E0,4.075749964E-2,-2.006785572E-2,-1.352882385E-2,4.740170550E-2
4.345555893E0,3.057229519E-2,3.818169236E-3,-1.103878021E-2,3.272763844E-2
4.350570946E0,4.438398033E-2,-3.324508667E-3,3.894138336E-2,5.913900072E-2
4.355586466E0,5.116254091E-2,8.597023785E-3,3.149127960E-2,6.068949746E-2
4.360602091E0,-3.308303654E-3,-5.816027522E-3,6.685638428E-2,6.719038002E-2
4.365617612E0,-1.657720283E-2,-5.803778768E-3,5.441474915E-2,5.717912579E-2
4.370633237E0,1.756665856E-2,-8.219540119E-3,-1.256084442E-2,2.310677704E-2
4.375648758E0,1.785724610E-2,1.794367284E-2,-2.433776855E-2,3.511671413E-2
4.380707456E0,-2.012227476E-2,8.202664554E-3,-1.463603973E-2,2.619929973E-2
4.385722977E0,3.434073180E-2,-8.634254336E-3,-7.152557373E-2,7.981067539E-2
4.390738602E0,4.749725759E-2,-1.329760253E-2,-8.280181885E-2,9.637923488E-2
4.395754123E0,3.791168332E-3,-1.084747910E-2,-1.084136963E-2,1.579797632E-2
4.400769748E0,2.247314900E-2,1.285813749E-2,2.250671387E-2,3.430635939E-2
4.405785268E0,5.303236097E-2,1.762137562E-2,3.657627106E-2,6.678897958E-2
4.410838393E0,4.321288317E-2,2.466858178E-2,4.814910889E-2,6.924037035E-2
4.415853914E0,-4.429329932E-2,3.046944737E-3,1.023788452E-1,1.115912550E-1
4.420869539E0,-4.508367553E-2,-6.465211511E-3,7.538604736E-2,8.807606313E-2
4.425885112E0,3.210737556E-2,1.245126128E-2,8.234977722E-3,3.540808285E-2
4.430900685E0,3.206750751E-2,3.590996563E-2,-6.547927856E-2,8.127352946E-2
4.435916258E0,-4.899816960E-2,4.588931799E-3,-5.068111420E-2,7.064314727E-2
4.440984904E0,-3.674334288E-2,-1.449018717E-2,-1.462650299E-2,4.211856312E-2
4.446000477E0,1.305235922E-2,2.112233639E-2,-4.300975800E-2,4.966242502E-2
4.451016050E0,5.979768932E-2,9.083278477E-3,-5.690002441E-2,8.304144973E-2
4.456031623E0,2.512534708E-2,-5.179047585E-3,-1.840972900E-2,3.157568244E-2
4.461047196E0,5.254372954E-3,-5.017742515E-3,-1.621246338E-3,7.444099326E-3
4.466062768E0,2.862120420E-2,-4.753455520E-3,6.253719330E-2,6.893960556E-2
4.471100529E0,3.800770640E-2,1.036822796E-4,5.726432800E-2,6.872990439E-2
4.476116102E0,-4.477851093E-3,-3.314015269E-2,2.590084076E-2,4.229863382E-2
4.481131675E0,2.697962523E-2,-1.384550333E-2,4.301071167E-3,3.062837496E-2
4.486147248E0,7.913893461E-2,2.899174392E-2,-2.424240112E-2,8.769940820E-2
4.491162821E0,3.558219969E-2,2.529442310E-3,2.091407776E-3,3.573324782E-2
4.496178393E0,2.316645533E-2,-2.371236682E-2,-9.803771973E-3,3.456985591E-2
4.501261623E0,6.538222730E-2,1.904810965E-2,-2.872657776E-2,7.391131441E-2
4.506277143E0,1.826935709E-1,4.962749034E-2,-9.024524689E-2,2.097237068E-1
4.511292716E0,1.798340529E-1,8.841283619E-3,-7.522869110E-2,1.951353655E-1
4.516308341E0,1.911476851E-1,4.931897670E-2,-1.757431030E-2,1.981884339E-1
4.521323914E0,2.077384293E-1,8.470582962E-2,7.522678375E-2,2.366207970E-1
4.526339487E0,9.230422229E-2,4.837556928E-2,1.434888840E-1,1.773395753E-1
4.531371050E0,1.139146015E-1,2.190098912E-2,1.256551743E-1,1.710129018E-1
4.536386623E0,2.090327740E-1,5.482552201E-2,5.570602417E-2,2.231674250E-1
4.541402196E0,9.901222587E-2,1.388729364E-2,2.197360992E-2,1.023675599E-1
4.546417768E0,2.554097027E-2,-1.250900328E-2,1.465320587E-2,3.199269866E-2
4.551433341E0,7.352110744E-2,1.645997167E-3,-4.961776733E-2,8.871293807E-2
4.556448914E0,1.063123345E-4,1.336041838E-2,-8.829116821E-3,1.601453669E-2
4.561492821E0,1.050213724E-2,2.972618490E-2,-4.014015198E-3,3.178133530E-2
4.566508393E0,-6.239011139E-2,8.208602667E-4,-1.824283600E-2,6.500769859E-2
4.571523966E0,-1.252200902E-1,-4.441705346E-2,-7.748699188E-2,1.538089059E-1
4.576539539E0,-1.592267007E-1,-4.868489504E-2,-2.695846558E-2,1.686716339E-1
4.581555112E0,-1.477101445E-1,-4.341439903E-2,1.127147675E-2,1.543701494E-1
4.586570685E0,-8.707907796E-2,-1.216074824E-2,-2.445602417E-2,9.126196762E-2
4.591634643E0,-1.628193259E-2,-9.673446417E-3,-1.168889999E-1,1.184133236E-1
4.596650216E0,-1.800505817E-2,-1.195818186E-2,-1.111488342E-1,1.132309303E-1
4.601665789E0,-7.886588573E-3,-4.262565076E-2,-5.081653595E-2,6.679419667E-2
4.606681362E0,2.924501896E-4,-2.557845414E-2,1.850986481E-2,3.157464075E-2
4.611696935E0,-3.088742867E-2,-4.430511594E-2,6.587028503E-2,8.518140054E-2
4.616712508E0,2.438750118E-2,-4.139189422E-2,7.244777679E-2,8.692939367E-2
4.621762612E0,-5.045510456E-2,-2.657130361E-2,1.383504868E-1,1.496416016E-1
4.626779487E0,-2.924478054E-2,-1.688617468E-2,1.205539703E-1,1.251944881E-1
4.631796362E0,-7.467337698E-2,-1.445987821E-2,8.390045166E-2,1.132452520E-1
4.636813237E0,-9.137352556E-2,-5.031555891E-3,5.705356598E-2,1.078403780E-1
4.641830060E0,-1.276120842E-1,-1.246494055E-2,-3.845500946E-2,1.338618934E-1
4.646846935E0,-1.143384501E-1,-1.503324509E-2,-1.070318222E-1,1.573375054E-1
4.651892091E0,-6.595958024E-2,2.042643726E-2,-1.370267868E-1,1.534413434E-1
4.656908966E0,-1.631477177E-1,-3.742232919E-3,-9.074974060E-2,1.867262636E-1
4.661925841E0,-1.642971635E-1,-1.562419534E-2,-4.960823059E-2,1.723329625E-1
4.666942716E0,-8.947316557E-2,2.965702116E-2,-3.493976593E-2,1.005274764E-1
4.671959539E0,-4.419367760E-2,2.002823353E-2,-4.414558411E-2,6.559759046E-2
4.676976414E0,-4.959504306E-2,-1.242771745E-3,-1.050949097E-2,5.071155863E-2
4.682026883E0,-6.404100358E-2,-2.956558764E-2,3.947067261E-2,8.082888165E-2
4.687043758E0,-1.897412539E-2,-1.019476354E-2,3.202152252E-2,3.859181963E-2
4.692060633E0,4.187941551E-2,1.128694415E-2,-2.049922943E-2,4.797394042E-2
4.697077508E0,4.763911664E-2,4.030436277E-3,-3.692626953E-3,4.795169804E-2
4.702094331E0,8.439220488E-2,-7.881373167E-4,1.772403717E-2,8.623692306E-2
4.707111206E0,5.004076660E-2,-8.154362440E-4,3.658390045E-2,6.199294339E-2
4.712156675E0,8.755043149E-2,-3.115281463E-3,2.915382385E-2,9.232945618E-2
4.717173550E0,1.319799423E-1,-2.212826908E-2,2.779960632E-3,1.338510129E-1
4.722190425E0,9.300006926E-2,-1.010042429E-2,2.413368225E-2,9.660986529E-2
4.727207300E0,2.646455169E-2,-3.375263512E-2,7.618904114E-2,8.743216149E-2
4.732224123E0,3.918617964E-2,-3.107808530E-2,3.991222382E-2,6.398741807E-2
4.737240998E0,6.120000780E-2,7.207237184E-3,1.581764221E-2,6.362061794E-2
4.742304279E0,6.815839559E-2,-4.039694369E-2,-5.320739746E-2,9.543849901E-2
4.747321154E0,3.436024487E-2,-3.069478273E-2,-3.851318359E-2,6.005049063E-2
4.752338029E0,-2.967566252E-2,-2.572137117E-2,1.406574249E-2,4.171425407E-2
4.757354904E0,-5.475129187E-2,1.727237552E-2,3.294754028E-2,6.619349914E-2
4.762371727E0,-2.978296950E-2,5.197525024E-4,-2.909755707E-2,4.164088427E-2
4.767388602E0,-2.656062692E-2,5.517163873E-2,-2.727508545E-3,6.129287010E-2
4.772434279E0,-7.205665112E-3,3.334983438E-2,-2.171039581E-2,4.044099837E-2
4.777451154E0,-7.587604225E-3,-2.159896493E-2,-8.329105377E-2,8.637989733E-2
4.782468029E0,-5.325337499E-2,-1.189602911E-2,-6.358814240E-2,8.379074716E-2
4.787484904E0,-3.677845001E-3,2.622979134E-2,-3.217029572E-2,4.167081022E-2
4.792501727E0,1.243568212E-2,-2.051740885E-4,1.085948944E-2,1.651111132E-2
4.797518602E0,1.447292417E-2,-2.560898662E-3,1.789760590E-2,2.315918895E-2
4.802562196E0,-2.574579045E-2,2.123363316E-2,5.575561523E-2,6.498000872E-2
4.807579071E0,-2.250794321E-2,6.768800318E-3,6.241130829E-2,6.669029590E-2
4.812595946E0,1.148096472E-2,6.677709520E-3,1.675128937E-2,2.137779340E-2
4.817612821E0,1.383671910E-2,-2.424260974E-2,-5.940628052E-2,6.563737569E-2
4.822629643E0,2.035477012E-2,-2.866882086E-2,-7.315826416E-2,8.116864894E-2
4.827646518E0,4.551230371E-2,-7.082387805E-3,-5.353832245E-2,7.062493877E-2
4.832688029E0,8.460293710E-2,-9.275823832E-3,-2.932929993E-2,9.002169576E-2
4.837704904E0,8.293688297E-2,-4.945972562E-2,-2.907562256E-2,1.008473244E-1
4.842721779E0,1.097926050E-1,-1.091514528E-2,9.184837341E-3,1.107154811E-1
4.847738654E0,2.146613002E-1,-3.573670983E-3,-5.134582520E-3,2.147524362E-1
4.852755477E0,1.670348048E-1,-1.281981170E-2,8.043575287E-2,1.858356369E-1
4.857772352E0,5.676012486E-2,-4.362682998E-2,1.082687378E-1,1.297965009E-1
4.862823550E0,5.034043640E-2,-9.880796075E-3,1.263618469E-1,1.363785395E-1
4.867840425E0,9.653805941E-2,3.287597001E-2,1.062908173E-1,1.473029672E-1
4.872857300E0,1.253580749E-1,6.177827716E-3,-1.507759094E-3,1.255192648E-1
4.877874175E0,9.134189039E-2,-2.726843953E-2,-7.514190674E-2,1.213804551E-1
4.882890998E0,4.779643565E-2,-1.757140458E-2,-6.976413727E-2,8.637296087E-2
4.887907873E0,3.792338073E-2,-1.033069193E-2,-3.117561340E-2,5.016796660E-2
4.892948706E0,-2.170130610E-2,-7.226765156E-4,-3.091621399E-2,3.777937579E-2
4.897965581E0,-1.906412095E-2,-5.395159125E-3,-1.165390015E-2,2.298612273E-2
4.902982456E0,9.308296442E-2,8.953407407E-2,2.407169342E-2,1.313782140E-1
4.907999331E0,-9.187098593E-2,2.461255342E-2,1.022539139E-1,1.396492705E-1
4.913016154E0,-2.337520421E-1,7.796950638E-3,1.655216217E-1,2.865278640E-1
4.918033029E0,-1.558995843E-1,4.555155337E-2,4.296875000E-2,1.680057674E-1
4.923085529E0,1.027919352E-2,5.194978416E-2,-1.450691223E-1,1.544328079E-1
4.928102404E0,-3.987891972E-2,7.027731836E-2,-1.462373734E-1,1.670766264E-1
4.933119279E0,-8.347892761E-2,-2.768842876E-2,-1.948957443E-1,2.138217285E-1
4.938136154E0,-8.473413438E-2,-5.821797252E-2,-1.885042191E-1,2.147161998E-1
4.943152977E0,-5.504389107E-2,-1.490302384E-2,-7.526874542E-2,9.443153129E-2
4.948169852E0,-6.024789810E-2,3.300913423E-2,1.082859039E-1,1.282390313E-1
4.953214175E0,-9.256400913E-2,4.467980564E-2,2.024021149E-1,2.270043985E-1
4.958231050E0,-4.575181752E-2,-1.031376421E-2,1.294422150E-1,1.376767575E-1
4.963247925E0,-3.485734388E-2,-7.835328579E-3,5.471515656E-2,6.534657721E-2
4.968264800E0,-1.285185292E-2,-2.221430838E-2,-2.888965607E-2,3.864269463E-2
4.973281623E0,1.521228254E-2,-1.736555994E-2,-1.260423660E-1,1.281391987E-1
4.978298498E0,1.174471527E-2,-5.430608988E-3,-8.222675323E-2,8.323862564E-2
4.983352039E0,3.469247371E-2,-1.719361544E-2,-5.302810669E-2,6.565948707E-2
4.988368914E0,-1.582152769E-2,-3.593254089E-2,-1.457405090E-2,4.187924538E-2
4.993385789E0,3.628483415E-2,2.393245697E-3,-1.207542419E-2,3.831621959E-2
4.998402664E0,8.563341945E-2,2.852196991E-2,4.028892517E-2,9.884221156E-2
5.003419487E0,9.676803648E-2,3.072832525E-2,6.608581543E-2,1.211429645E-1
5.008436362E0,2.967704087E-2,4.949311167E-2,9.403896332E-2,1.103341356E-1
5.013474852E0,1.572263241E-2,-1.741693914E-2,4.098987579E-2,4.723050769E-2
5.018491727E0,-3.879889846E-4,-1.250255108E-2,2.401447296E-2,2.707691324E-2
5.023508602E0,5.479506403E-2,4.194930196E-3,-3.795433044E-2,6.678793065E-2
5.028525477E0,5.482818931E-2,1.579383761E-2,1.224136353E-2,5.835603337E-2
5.033542300E0,-3.546069562E-2,6.072618067E-3,5.007743835E-3,3.632375425E-2
5.038559175E0,-4.412490502E-2,1.538471133E-2,9.711265564E-3,4.772845341E-2
5.043621571E0,-3.830343112E-2,1.981320977E-2,2.862739563E-2,5.176141321E-2
5.048638446E0,2.730980515E-3,-1.132330298E-2,-4.050540924E-2,4.214692898E-2
5.053655321E0,-1.161247492E-4,1.734407246E-2,-8.292293549E-2,8.471743365E-2
5.058672196E0,-3.302037716E-3,2.676902711E-2,-7.747364044E-2,8.203443929E-2
5.063689018E0,-1.105713099E-2,1.457921416E-2,-3.881549835E-2,4.291219574E-2
5.068705893E0,-3.965822235E-2,-1.408497989E-2,1.852226257E-2,4.598081632E-2
5.073745685E0,1.079015434E-3,-9.095475078E-3,3.974819183E-2,4.078983569E-2
5.078762560E0,5.789681524E-2,-4.304468632E-3,-3.341674805E-3,5.815269947E-2
5.083779435E0,4.746615887E-2,-2.558030188E-2,-1.281166077E-2,5.542135629E-2
5.088796310E0,4.419840872E-2,-2.049514651E-2,1.818370819E-2,5.200190004E-2
5.093813133E0,1.073176712E-1,1.124858856E-3,-8.093833923E-3,1.076283327E-1
5.098830008E0,1.270459294E-1,-2.267532051E-2,-8.935928345E-4,1.290567195E-1
5.103878133E0,6.857987493E-2,-5.340315402E-2,8.618354797E-3,8.734627722E-2
5.108895008E0,3.261124343E-2,-5.304205418E-2,3.229904175E-2,7.014400051E-2
5.113911883E0,4.275137186E-2,-7.602050900E-3,7.240486145E-2,8.442709835E-2
5.118928758E0,9.339845926E-2,2.077804506E-2,5.040931702E-2,1.081485025E-1
5.123945581E0,3.656971455E-2,-1.754055917E-2,9.346008301E-5,4.055889511E-2
5.128962456E0,3.863207996E-3,-5.655288696E-3,-2.291679382E-3,7.222081462E-3
5.134007404E0,-4.101600870E-2,-3.884649277E-2,-4.265880585E-2,7.078938258E-2
5.139025268E0,2.581685781E-2,2.088558674E-2,-3.992748260E-2,5.193189529E-2
5.144043185E0,5.614634603E-2,-7.775828242E-3,-7.284927368E-2,9.230326296E-2
5.149061102E0,7.776319981E-3,1.590617746E-2,-3.660774231E-2,4.066453530E-2
5.154078966E0,-2.324988693E-2,3.236822039E-2,8.831977844E-3,4.081988199E-2
5.159096883E0,-1.079196483E-2,4.404471815E-2,5.626773834E-2,7.226660418E-2
5.164142091E0,8.849076927E-3,2.717097104E-2,3.441619873E-2,4.473301426E-2
5.169159956E0,9.006530046E-3,2.701351047E-2,-2.288436890E-2,3.653137926E-2
5.174177873E0,-1.093022153E-1,-1.817385852E-2,5.807209015E-2,1.250984854E-1
5.179195789E0,-6.477510184E-2,-1.784861088E-2,4.095458984E-2,7.868713464E-2
5.184213654E0,-2.315330878E-2,5.347837508E-2,-1.878166199E-2,6.122714378E-2
5.189231518E0,-4.142553359E-2,3.135540336E-2,-9.132385254E-3,5.275070250E-2
5.194286518E0,-8.350640535E-2,2.593861520E-2,-1.618957520E-2,8.892825107E-2
5.199304383E0,-7.091233134E-2,2.795736492E-2,-8.019638062E-2,1.106419109E-1
5.204322300E0,-1.181756258E-1,-1.971898973E-2,-7.002162933E-2,1.387708387E-1
5.209340216E0,-5.829982087E-2,-2.408124506E-2,-7.893371582E-2,1.010411152E-1
5.214358081E0,-2.536646649E-2,-7.079690695E-3,-5.213642120E-2,5.841049613E-2
5.219375998E0,5.407537520E-2,-9.172126651E-3,-4.693603516E-2,7.218909548E-2
5.224412821E0,9.400803596E-2,-4.920150340E-2,-7.740497589E-2,1.313386046E-1
5.229430685E0,8.626493812E-2,-5.796267092E-2,-1.734924316E-2,1.053674855E-1
5.234448602E0,1.383920759E-1,-8.560217917E-2,4.220294952E-2,1.681106442E-1
5.239466518E0,2.183847427E-1,-8.941088617E-2,-1.989269257E-2,2.368162191E-1
5.244484383E0,3.021029830E-1,-1.075415164E-1,-1.970386505E-2,3.212781231E-1
5.249502300E0,3.680306375E-1,-1.490655243E-1,-2.188301086E-2,3.976756805E-1
5.254536414E0,4.072234035E-1,-2.161591798E-1,-6.679821014E-2,4.658515775E-1
5.259554279E0,2.855591476E-1,-2.044510096E-1,1.024465561E-1,3.658408656E-1
5.264572196E0,4.246275127E-1,-1.074199975E-1,1.633729935E-1,4.674808182E-1
5.269590112E0,5.420930982E-1,-1.206791103E-1,1.311321259E-1,5.706347423E-1
5.274607977E0,3.468824029E-1,-2.003405094E-1,2.131643295E-1,4.537650852E-1
5.279625893E0,2.093475461E-1,-1.747565866E-1,2.303552628E-1,3.569731176E-1
5.284670425E0,1.834563315E-1,-6.898155808E-2,2.188787460E-1,2.938070564E-1
5.289688289E0,7.064417005E-2,-8.792814612E-2,1.766033173E-1,2.095487755E-1
5.294706206E0,-5.568525940E-2,-1.115192920E-1,2.303409576E-2,1.267594974E-1
5.299724123E0,-1.552959979E-1,-3.756852448E-2,8.533477783E-3,1.600033163E-1
5.304741987E0,-6.079325452E-2,-7.820129395E-5,-1.792469025E-1,1.892756666E-1
5.309759904E0,-1.163390800E-1,3.725495189E-2,-2.585420609E-1,2.859487895E-1
5.314800685E0,-2.249825001E-1,-6.178602576E-3,-2.777690887E-1,3.575065973E-1
5.319818550E0,-2.922285795E-1,2.233058959E-2,-1.162910461E-1,3.153090632E-1
5.324836466E0,-2.088952512E-1,9.821355343E-2,-5.355739594E-2,2.369631252E-1
5.329854383E0,-9.801622480E-2,2.042896450E-1,6.278038025E-3,2.266734504E-1
5.334872248E0,-2.274235785E-1,1.384919584E-1,1.416292191E-1,3.015963234E-1
5.339890164E0,-2.952225804E-1,1.016947553E-1,1.689405441E-1,3.550198624E-1
5.344939800E0,-2.526021600E-1,2.170244157E-1,1.318788528E-1,3.581891680E-1
5.349957664E0,-1.754010916E-1,2.267615646E-1,-9.392738342E-3,2.868354470E-1
5.354975581E0,-2.824371159E-1,1.297255307E-1,-1.589803696E-1,3.491048491E-1
5.359993498E0,-4.405348003E-1,1.903851032E-1,-1.038169861E-2,4.800262258E-1
5.365011362E0,-3.381806016E-1,1.912503988E-1,-4.593563080E-2,3.912197803E-1
5.370029279E0,-3.271108270E-1,2.158090770E-1,-1.025714874E-1,4.050875966E-1
5.375063706E0,-3.712910116E-1,1.997777820E-1,-9.934616089E-2,4.331718333E-1
5.380081571E0,-3.353254795E-1,1.411198378E-1,-1.175193787E-1,3.823202717E-1
5.385099487E0,-2.557756305E-1,8.785621822E-2,-1.450347900E-1,3.068794202E-1
5.390117404E0,-1.662097424E-1,4.949618876E-2,-1.580581665E-1,2.346442737E-1
5.395135268E0,-1.422030777E-1,3.294046968E-2,-1.377105713E-1,2.006763346E-1
5.400153185E0,-9.928982705E-2,1.419822872E-2,-4.388904572E-2,1.094819976E-1
5.405196206E0,9.815532714E-3,-4.385486245E-3,-1.498985291E-2,1.844648645E-2
5.410214071E0,8.988656104E-2,-3.916308284E-3,3.029537201E-2,9.493545645E-2
5.415231987E0,8.945605904E-2,-5.931213498E-3,1.535892487E-1,1.778404428E-1
5.420249852E0,1.165105253E-1,-5.554139614E-3,2.449645996E-1,2.713175373E-1
5.425267768E0,1.067337915E-1,-1.964168251E-2,2.476711273E-1,2.704050393E-1
5.430285633E0,1.002988517E-1,-1.497112215E-2,1.957073212E-1,2.204208468E-1
5.435340529E0,8.004299551E-2,-2.464693785E-2,1.156654358E-1,1.428035214E-1
5.440358393E0,4.114484787E-2,-2.231061459E-2,5.767059326E-2,7.427354412E-2
5.445376310E0,-4.658315331E-3,-8.115351200E-3,-4.735088348E-2,4.826660329E-2
5.450394227E0,-1.259139180E-2,-1.314669847E-2,-1.182365417E-1,1.196296729E-1
5.455412091E0,-3.786741197E-2,-8.529886603E-3,-1.315116882E-1,1.371204726E-1
5.460429956E0,-5.426210165E-2,3.279425204E-3,-1.114120483E-1,1.239668295E-1
5.465477768E0,-3.794378787E-2,1.271825284E-2,-1.104793549E-1,1.175039269E-1
5.470495633E0,-2.919743955E-2,8.537769318E-4,-8.579444885E-2,9.063060667E-2
5.475513550E0,5.297757685E-3,1.123145223E-3,-4.299163818E-3,6.914513809E-3
5.480531466E0,4.203699529E-2,-3.412783146E-3,2.662944794E-2,4.987868843E-2
5.485549331E0,4.795199633E-2,8.613839746E-3,3.591823578E-2,6.052860355E-2
5.490567248E0,5.660915375E-2,-1.028972864E-2,6.650638580E-2,8.794074230E-2
5.495605685E0,1.030965075E-1,-2.190846205E-2,2.794933319E-2,1.090414407E-1
5.500623550E0,3.139278293E-1,-7.624197006E-2,-1.551837921E-1,3.583929817E-1
5.505641466E0,4.379330575E-1,-8.245715499E-2,-2.274971008E-1,5.003393610E-1
5.510659383E0,2.951614857E-1,-7.921977341E-2,-7.018089294E-3,3.056882868E-1
5.515677248E0,3.123390079E-1,-2.147676051E-2,1.902275085E-1,3.663378387E-1
5.520695112E0,2.415438890E-1,2.526119351E-3,3.192920685E-1,4.003713983E-1
5.525746362E0,1.476213038E-1,-1.410654187E-2,3.142261505E-1,3.474609583E-1
5.530764227E0,8.943634480E-2,7.096268237E-3,3.044319153E-1,3.173767601E-1
5.535782143E0,-5.750045180E-3,-5.134820938E-3,1.664390564E-1,1.666174928E-1
5.540800060E0,-4.132777080E-2,8.761890233E-3,2.960205078E-2,5.158523791E-2
5.545817925E0,-1.344557852E-1,3.436762094E-2,-4.669857025E-2,1.464248886E-1
5.550835841E0,-1.713566780E-1,3.125315160E-2,-1.936159134E-1,2.604361582E-1
5.555873185E0,-2.190611660E-1,1.644271612E-2,-3.012857437E-1,3.728689539E-1
5.560916466E0,-3.242154121E-1,4.288516939E-3,-2.251348495E-1,3.947400731E-1
5.565935425E0,-2.985152602E-1,2.564948797E-2,-1.329832077E-1,3.278014496E-1
5.570953237E0,-2.096174508E-1,4.239335656E-2,-1.081056595E-1,2.396320220E-1
5.575979279E0,-2.048676312E-1,3.534664214E-2,-5.255126953E-2,2.144335966E-1
5.580987300E0,-1.693728417E-1,4.013099521E-2,7.290840149E-3,1.742148462E-1
5.586005216E0,-9.632486105E-2,4.439987242E-3,3.575325012E-2,1.028420499E-1
5.591023081E0,-2.349317074E-4,4.679135978E-3,2.596950531E-2,2.638872321E-2
5.596040998E0,3.318892419E-2,-2.121320367E-2,9.141921997E-3,4.043611550E-2
5.601058914E0,5.017207563E-2,-3.031370044E-2,4.708957672E-2,7.519033078E-2
5.606076779E0,6.557332724E-2,3.316953778E-3,8.708953857E-2,1.090662696E-1
5.611115008E0,8.178335428E-2,-6.143629551E-3,1.219968796E-1,1.470017002E-1
5.616132873E0,8.902966231E-2,-6.128653884E-3,1.090955734E-1,1.409456821E-1
5.621150789E0,6.559303403E-2,-1.259088516E-3,9.155082703E-2,1.126303039E-1
5.626168706E0,3.553659469E-2,-8.516207337E-3,6.227016449E-2,7.220075301E-2
5.631186571E0,1.523283124E-2,-8.586212993E-3,3.798389435E-2,4.181552859E-2
5.636204487E0,-9.964175522E-3,3.326460719E-3,-3.123092651E-2,3.295027930E-2
5.641247248E0,-3.789585084E-2,1.028443873E-2,-8.561420441E-2,9.418947493E-2
5.646265112E0,-3.760886192E-2,5.054324865E-4,-1.181602478E-1,1.240021214E-1
5.651283029E0,-3.293792158E-2,-4.285320640E-3,-8.629131317E-2,9.246329748E-2
5.656300946E0,-2.619035542E-2,-1.857519150E-3,-8.081722260E-2,8.497534091E-2
5.661318810E0,-1.495589688E-2,3.029569983E-3,-4.450321198E-2,4.704671106E-2
5.666336727E0,1.281169057E-2,6.962269545E-4,-1.365661621E-3,1.290306858E-2
5.671397456E0,3.099637479E-2,-3.992274404E-3,5.091285706E-2,5.973970638E-2
5.676415321E0,2.094507217E-2,-1.411661506E-3,4.574203491E-2,5.032914260E-2
5.681433237E0,4.929813743E-2,-6.031185389E-3,5.486583710E-2,7.400636210E-2
5.686451154E0,4.922050238E-2,5.964554846E-3,6.390857697E-2,8.088596898E-2
5.691469018E0,1.857426018E-2,-2.025189996E-2,5.624389648E-2,6.259807093E-2
5.696486935E0,2.619273961E-2,-1.541952789E-2,1.538562775E-2,3.406668445E-2
5.701519279E0,-4.311159253E-3,1.354306936E-3,3.375053406E-3,5.640144225E-3
5.706537143E0,7.987678051E-3,-3.496259451E-3,-2.516269684E-2,2.663058661E-2
5.711555060E0,-1.351155341E-3,-1.127392054E-3,-3.683185577E-2,3.687386925E-2
5.716572925E0,-2.744828165E-2,1.309975982E-2,-3.652572632E-2,4.753041716E-2
5.721590841E0,1.303109527E-2,3.556996584E-3,-3.146934509E-2,3.424589536E-2
5.726608706E0,2.229115367E-2,1.077452302E-2,-2.882862091E-2,3.800099027E-2
5.731640685E0,9.990222752E-3,2.273582667E-2,-4.996395111E-2,5.579532934E-2
5.736658602E0,7.240571082E-3,-8.059814572E-3,3.442764282E-4,1.083997264E-2
5.741676518E0,-4.883624613E-3,-6.938725710E-4,9.846687317E-3,1.101310581E-2
5.746694383E0,2.838511020E-2,1.651972532E-3,2.876853943E-2,4.044839126E-2
5.751712248E0,3.524501622E-2,1.602366567E-3,1.427555084E-2,3.806008537E-2
5.756730216E0,1.380132884E-2,-8.223503828E-4,2.128028870E-2,2.537722650E-2
5.761777664E0,9.218074381E-3,3.846853971E-3,1.397418976E-2,1.717699509E-2
5.766795529E0,1.174596697E-2,-5.723550916E-3,-9.900093079E-3,1.639324916E-2
5.771813446E0,1.430547982E-2,-1.268228889E-2,-4.307460785E-2,4.712652168E-2
5.776831362E0,-4.484169185E-3,1.640796661E-3,4.792213440E-3,6.765005293E-3
5.781849227E0,4.807487130E-4,1.538559794E-3,-4.752159119E-3,5.018097434E-3
5.786867143E0,-8.952256292E-3,-1.033614576E-2,-3.796958923E-2,4.035676534E-2
5.791912456E0,5.449809134E-3,6.342746317E-3,-2.815246582E-2,2.936821721E-2
5.796930321E0,7.798373699E-4,1.586057991E-2,5.339622498E-3,1.675343874E-2
5.801948185E0,5.358606577E-4,2.757063508E-2,-1.370811462E-2,3.079512091E-2
5.806966154E0,2.720080316E-3,1.547900587E-2,-1.834201813E-2,2.415425612E-2
5.811983966E0,1.870393753E-4,-1.546415687E-2,7.943153381E-3,1.738587982E-2
5.817001883E0,7.281236351E-3,3.213926405E-2,7.505416870E-4,3.296228161E-2
5.822039748E0,4.865571856E-3,1.763370633E-2,-1.350975037E-2,2.274059681E-2
5.827057664E0,1.434900612E-2,8.000768721E-3,-1.519203186E-3,1.649891678E-2
5.832075529E0,2.861053497E-2,-6.301835179E-3,3.174972534E-2,4.320093630E-2
5.837093498E0,1.904917508E-2,-2.058963478E-2,1.247787476E-2,3.070018713E-2
5.842111362E0,2.387501299E-3,3.249481320E-3,4.949569702E-4,4.062545225E-3
5.847129227E0,1.421512663E-2,-8.587107062E-3,4.920959473E-4,1.661476426E-2
5.852169748E0,-4.885002971E-3,5.649812520E-3,7.613182068E-3,1.066509150E-2
5.857187664E0,1.180698723E-2,-2.066765726E-2,-4.329681396E-3,2.419303918E-2
5.862205581E0,-1.450448856E-2,5.599655211E-3,-9.044647217E-3,1.798727245E-2
5.867223498E0,2.318970859E-3,8.180886507E-4,1.003551483E-2,1.033239821E-2
5.872241362E0,-9.556207806E-3,-1.332178712E-2,2.827644348E-3,1.663690753E-2
5.877259279E0,4.850484431E-3,-8.599519730E-3,-6.700515747E-3,1.193213518E-2
5.882309227E0,1.190564036E-2,-1.569089293E-2,1.235961914E-2,2.325314127E-2
5.887327091E0,9.454086423E-3,-2.266985178E-2,-1.624965668E-2,2.945086199E-2
5.892345008E0,2.845411748E-2,-5.887642503E-3,-1.136493683E-2,3.120036738E-2
5.897362925E0,1.160939038E-2,3.627359867E-3,1.961135864E-2,2.307685144E-2
5.902380789E0,9.108304977E-3,8.313126862E-3,-9.058952332E-3,1.530143507E-2
5.907398706E0,6.731383502E-3,8.208386600E-3,-4.233360291E-3,1.142849394E-2
5.912440789E0,1.155350357E-2,-8.628919721E-3,-4.200935364E-3,1.501963909E-2
5.917458654E0,2.103389055E-2,8.056759834E-4,-6.543159485E-3,2.204283560E-2
5.922476518E0,4.198998213E-3,-4.040330648E-3,-1.836681366E-2,1.926903479E-2
5.927494435E0,4.133842885E-3,5.525797606E-4,-1.586914062E-3,4.462319759E-3
5.932512300E0,1.135048270E-2,1.006555557E-2,1.030254364E-2,1.833824615E-2
5.937530216E0,1.138173789E-2,2.182353288E-2,-4.036903381E-3,2.494207557E-2
5.942571102E0,1.136038452E-2,2.646085620E-2,-1.627922058E-3,2.884242323E-2
5.947588966E0,-7.612749934E-3,-4.677474499E-3,-6.366729736E-3,1.097123406E-2
5.952606831E0,-7.370114326E-3,-1.417572796E-2,3.187179565E-3,1.629196004E-2
5.957624800E0,7.017686963E-3,2.114325762E-4,-1.590728760E-3,7.198822962E-3
5.962642664E0,9.407907724E-3,-4.629611969E-3,-1.583194733E-2,1.898927568E-2
5.967660581E0,9.351350367E-3,7.221102715E-5,-1.447677612E-3,9.463019528E-3
5.972701518E0,1.404643804E-2,7.266692817E-3,8.067131042E-3,1.775347429E-2
5.977719435E0,6.877288222E-3,1.440129429E-2,3.249168396E-3,1.628654248E-2
5.982737352E0,1.412443072E-2,-2.133561671E-2,-3.906250000E-3,2.588371829E-2
5.987755268E0,6.901949644E-3,-2.189338207E-3,8.002281189E-3,1.079196993E-2
5.992773133E0,-3.130137920E-4,1.442145556E-2,1.268672943E-2,1.921013956E-2
5.997791050E0,-1.852437854E-4,-4.635229707E-3,3.079414368E-3,5.567985501E-3
6.002837404E0,1.419676095E-2,2.494335175E-3,-6.449699402E-3,1.579140120E-2
6.007855268E0,3.067569435E-2,-4.637643695E-3,5.481719971E-3,3.150484433E-2
6.012873185E0,1.133428514E-2,1.686215401E-4,1.018810272E-2,1.524112496E-2
6.017891050E0,-5.633383989E-4,2.455279231E-3,-1.775741577E-3,3.082045490E-3
6.022908966E0,4.267625511E-3,-1.190549135E-2,-1.364135742E-2,1.860214999E-2
6.027926831E0,2.563509345E-2,2.411872149E-3,-1.352882385E-2,2.908615166E-2
6.032965373E0,1.826321334E-2,4.835002124E-3,3.214836121E-3,1.916396040E-2
6.037983289E0,3.984987736E-3,7.135160267E-3,7.937431335E-3,1.139269307E-2
6.043001206E0,-7.955387235E-3,-3.437697887E-5,-8.757591248E-3,1.183151606E-2
6.048019123E0,-1.499250904E-2,-4.768252373E-3,-8.684158325E-3,1.797014646E-2
6.053036935E0,-5.290225148E-3,-7.191136479E-3,1.989364624E-2,2.180495555E-2
6.058054904E0,9.134955704E-3,-9.437456727E-3,3.099441528E-3,1.349516739E-2
6.063100112E0,1.863658428E-2,1.209031045E-2,7.823944092E-3,2.355232434E-2
6.068117977E0,8.844971657E-3,1.184971631E-2,-6.495475769E-3,1.615055744E-2
6.073135841E0,-6.570443511E-4,7.016055286E-3,6.856918335E-4,7.080036182E-3
6.078153810E0,1.135128736E-2,3.790738434E-2,1.730823517E-2,4.319023636E-2
6.083171675E0,1.602826267E-2,1.973852515E-3,7.660865784E-3,1.787428775E-2
6.088189591E0,1.359299570E-2,-7.580578327E-3,-1.615905762E-2,2.243545950E-2
6.093230008E0,1.123059541E-2,6.647579372E-3,-1.602649689E-2,2.066797492E-2
6.098248706E0,2.546543628E-2,-7.644116879E-3,-4.015922546E-3,2.688956306E-2
6.103267404E0,-8.551552892E-4,-9.887397289E-3,1.264762878E-2,1.607651796E-2
6.108286102E0,3.924891353E-3,-2.652160823E-2,7.789611816E-3,2.791914267E-2
6.113304852E0,-1.519496366E-2,9.504288435E-3,6.017684937E-4,1.793266697E-2
6.118323550E0,2.053320408E-2,9.492516518E-3,-1.840686798E-2,2.916390112E-2
6.123367873E0,6.182417274E-3,-4.928499460E-3,-1.587963104E-2,1.773908319E-2
6.128386571E0,6.204076111E-3,-9.570688009E-3,-1.494407654E-3,1.150312495E-2
6.133405268E0,1.572770625E-2,2.246528864E-3,2.702236176E-2,3.134670111E-2
6.138423966E0,-9.589344263E-4,-2.161578834E-2,1.254177094E-2,2.500915590E-2
6.143442716E0,2.520181239E-2,-9.489774704E-3,5.607604980E-4,2.693513735E-2
6.148461414E0,3.685817122E-3,-2.371922135E-3,-1.821517944E-3,4.746492399E-3
6.153488498E0,-3.397531807E-3,1.424070448E-2,7.694244385E-3,1.653911373E-2
6.158507196E0,2.040529996E-2,4.634551704E-3,5.254745483E-3,2.157470014E-2
6.163525893E0,6.107218564E-3,-4.890426993E-3,-1.915931702E-3,8.055134328E-3
6.168544643E0,2.043677121E-2,-2.561226487E-3,-1.378059387E-2,2.478157110E-2
6.173563341E0,1.553791761E-2,-7.378444076E-3,-4.163742065E-3,1.769760065E-2
6.178582039E0,1.543163508E-2,-1.210312545E-2,-4.130363464E-3,2.004197868E-2
6.183630789E0,1.062761992E-2,-2.391524613E-2,-2.785301208E-2,3.821878576E-2
6.188649487E0,1.293711364E-2,-7.070660591E-3,8.859634399E-4,1.476983689E-2
6.193668185E0,1.765355468E-2,2.454191446E-3,1.275539398E-2,2.191737037E-2
6.198686883E0,1.040235907E-2,1.195243001E-2,2.452659607E-2,2.919971870E-2
6.203705581E0,8.014664054E-3,-2.279832959E-3,1.006984711E-2,1.307035956E-2
6.208724331E0,2.000412345E-2,-1.169444621E-2,-2.089595795E-2,3.120202054E-2
6.213745789E0,1.278538257E-2,3.492832184E-4,-6.468772888E-3,1.433293511E-2
6.218764487E0,3.199897707E-3,2.842843533E-3,7.133483887E-4,4.339351404E-3
6.223783185E0,5.624659359E-3,-2.081491053E-2,-1.667022705E-3,2.162582387E-2
6.228801883E0,2.460393310E-2,-1.587420702E-2,5.473136902E-3,2.978756787E-2
6.233820633E0,-4.033699632E-3,-1.576542854E-3,3.050804138E-3,5.297511301E-3
6.238839331E0,1.740296185E-2,8.059673011E-3,2.678108215E-2,3.294006332E-2
6.243883185E0,2.451241016E-2,-8.566975594E-3,2.802848816E-3,2.611718370E-2
6.248901883E0,1.725537330E-2,-8.583426476E-3,-1.147651672E-2,2.243063873E-2
6.253920581E0,1.470519602E-2,5.653090775E-3,-2.563476562E-2,3.008889220E-2
6.258939279E0,1.465649903E-2,-1.100662351E-2,-1.354408264E-2,2.279036857E-2
6.263981883E0,1.466218382E-2,-3.823548555E-3,-6.304740906E-3,1.641185291E-2
6.269017143E0,9.915880859E-3,5.570523441E-3,-3.879547119E-3,1.201691768E-2
6.274025581E0,1.698096842E-2,1.256264746E-2,9.031295776E-4,2.114211538E-2
6.279039800E0,9.786635637E-3,1.015053689E-2,1.990032196E-2,2.438922816E-2
6.284058498E0,-9.172677994E-3,7.550932467E-3,1.735591888E-2,2.103289146E-2
6.289077196E0,1.710784435E-2,2.596691251E-3,1.245689392E-2,2.132124176E-2
6.294103966E0,1.234027743E-2,-2.829074860E-2,-1.140403748E-2,3.290442180E-2
6.299122664E0,2.863198519E-3,-1.373244822E-2,1.244640350E-2,1.875342635E-2
6.304141414E0,7.610887289E-3,-3.944441676E-3,9.968757629E-3,1.314763683E-2
6.309160112E0,1.707077026E-2,-6.375342607E-3,9.884834290E-3,2.073080171E-2
6.314178810E0,1.927387714E-2,-6.462082267E-3,7.425308228E-3,2.164199736E-2
6.319197508E0,7.310107350E-3,7.861532271E-3,4.987716675E-3,1.183717351E-2
6.324252768E0,-2.126179636E-3,6.856769323E-4,1.444816589E-2,1.461985945E-2
6.329271466E0,2.665139735E-3,1.004262269E-2,-1.655578613E-2,1.954613247E-2
6.334290164E0,-2.034291625E-3,1.462215930E-2,-2.117061615E-2,2.580970502E-2
6.339308862E0,-1.144495234E-2,-4.591479897E-3,-9.119033813E-3,1.533705967E-2
6.344327612E0,7.729932666E-3,2.538308501E-3,-1.854610443E-2,2.025223095E-2
6.349346310E0,-6.565175951E-3,-2.592073381E-2,-1.601505280E-2,3.116837969E-2
6.354373966E0,1.003598422E-2,-2.336509526E-2,-4.004478455E-3,2.574265921E-2
6.359392664E0,5.119100213E-3,-1.722365618E-3,-6.344795227E-3,8.332356016E-3
6.364411362E0,-1.163652912E-2,-1.745000482E-3,5.585670471E-3,1.302511233E-2
6.369430112E0,1.218497008E-2,5.307920277E-3,7.913589478E-3,1.546843276E-2
6.374448810E0,4.928015172E-3,-1.846000552E-3,1.022338867E-2,1.149829237E-2
6.379467508E0,1.198476553E-2,5.364932120E-3,1.964187622E-2,2.362668836E-2
6.384506518E0,4.781574011E-3,-1.593819261E-2,5.225181580E-3,1.744109962E-2
6.389525216E0,1.194219291E-2,-6.235048175E-3,1.468467712E-2,1.992815946E-2
6.394543914E0,9.593680501E-3,-1.339718699E-2,2.168655396E-2,2.723655535E-2
6.399562664E0,-4.663601518E-3,5.632050335E-3,-1.412963867E-2,1.590961530E-2
6.404581362E0,1.440140605E-2,5.549274385E-3,-6.885528564E-3,1.689986527E-2
6.409600060E0,9.655505419E-3,-1.353749633E-2,9.799957275E-3,1.930108169E-2
6.414641050E0,1.915137470E-2,-1.810729504E-2,1.209354401E-2,2.899832914E-2
6.419659748E0,-7.065281272E-3,8.086659014E-3,1.199054718E-2,1.609613230E-2
6.424678446E0,1.682417840E-2,5.556635559E-3,-2.136898041E-2,2.775900757E-2
6.429697196E0,2.615527064E-2,8.790642023E-4,-6.936073303E-3,2.707360428E-2
6.434715893E0,6.902158260E-3,8.014135063E-3,-1.400566101E-2,1.755063218E-2
6.439734591E0,1.647333056E-2,3.414681554E-2,-3.289222717E-2,5.019237232E-2
6.444780946E0,-9.719915688E-3,-1.373645663E-2,-6.489753723E-3,1.803562877E-2
6.449799643E0,1.429636776E-2,-8.801579475E-3,-1.684188843E-3,1.687277169E-2
6.454818341E0,1.430377364E-2,7.917053998E-3,-1.670837402E-3,1.643378782E-2
6.459837091E0,2.380736172E-3,-6.489992142E-3,-1.658439636E-3,7.109031210E-3
6.464855789E0,2.382740378E-3,3.030404449E-3,1.260757446E-2,1.318376792E-2
6.469874487E0,1.431579143E-2,5.501620471E-3,1.725482941E-2,2.308546837E-2
6.474897716E0,1.212880015E-4,1.022303104E-2,7.607460022E-3,1.274356789E-2
6.479916414E0,1.201981306E-2,2.923369408E-3,-2.333831787E-2,2.641399394E-2
6.484935112E0,9.514629841E-3,1.004216075E-2,1.486492157E-2,2.030613372E-2
6.489953862E0,6.040930748E-5,-1.850277185E-3,2.863883972E-3,3.410132894E-3
6.494972560E0,2.613998950E-3,2.984762192E-3,-6.662368774E-3,7.754286140E-3
6.499991258E0,5.041606724E-3,-2.083131671E-2,1.002120972E-2,2.365980132E-2
6.505038706E0,-1.948811114E-3,6.333887577E-4,-4.318237305E-3,4.779771908E-3
6.510057404E0,-6.506457925E-3,-4.055172205E-3,-4.281997681E-3,8.781453210E-3
6.515076102E0,-1.627318561E-3,5.496941507E-3,5.054473877E-4,5.754998583E-3
6.520094852E0,-1.591227949E-3,3.092125058E-3,2.877235413E-3,4.513504999E-3
6.525113550E0,2.457410097E-2,6.025880575E-4,-1.377773285E-2,2.817934480E-2
6.530132248E0,7.919102907E-3,-1.865446568E-3,1.484107971E-2,1.692482581E-2
6.535160841E0,2.218101174E-2,-1.833334565E-3,4.644393921E-4,2.226149369E-2
6.540179539E0,5.868449807E-4,2.897545695E-3,-1.616859436E-2,1.643665421E-2
6.545198237E0,-1.607697085E-2,-4.237055779E-3,-1.128387451E-2,2.009346802E-2
6.550216987E0,1.026177406E-2,-2.556541562E-2,1.494121552E-2,3.133902366E-2
6.555235685E0,1.267696917E-2,-1.108337939E-2,1.481533051E-2,2.242857249E-2
6.560254383E0,5.467243493E-3,-2.042461932E-2,-1.381397247E-2,2.525631923E-2
6.565310373E0,4.350537062E-2,-1.305875182E-2,-2.320098877E-2,5.100523651E-2
6.570329071E0,1.217934489E-2,3.643363714E-3,1.500129700E-2,1.966340390E-2
6.575347768E0,3.260150552E-4,-1.062406600E-2,1.012420654E-2,1.467912198E-2
6.580366466E0,3.458261490E-4,-2.239668369E-2,-1.371574402E-2,2.626504655E-2
6.585385216E0,3.357098252E-2,-3.345236182E-3,-1.725196838E-3,3.378132289E-2
6.590403914E0,1.668498665E-2,-1.029297709E-3,-2.071571350E-2,2.661933544E-2
6.595445998E0,4.637949169E-3,-5.755573511E-3,1.746559143E-2,1.896533899E-2
6.600464696E0,2.357479930E-2,1.568914205E-2,2.444648743E-2,3.741057454E-2
6.605483393E0,6.771422923E-3,-1.535943151E-2,-2.326869965E-2,2.869140442E-2
6.610502143E0,2.037771046E-3,1.257449389E-3,-6.448745728E-3,6.878954227E-3
6.615520841E0,4.468806088E-3,1.106336713E-3,-6.398200989E-3,7.882333707E-3
6.620539539E0,-1.915991306E-4,-8.439734578E-3,-1.594543457E-3,8.591181456E-3
6.625569279E0,-4.919193685E-3,1.148939133E-3,5.544662476E-3,7.500787266E-3
6.630587977E0,-1.905621216E-2,-2.032756805E-2,7.872581482E-3,2.895387338E-2
6.635606675E0,-2.194106579E-3,-1.241341233E-3,3.054618835E-3,3.960521174E-3
6.640625425E0,1.457811892E-2,-1.541642845E-2,-2.310180664E-2,3.136688202E-2
6.645644123E0,2.862837166E-2,1.793409884E-2,-6.280899048E-3,3.436080991E-2
6.650662821E0,-9.480863810E-5,-8.486106992E-3,3.272056580E-3,9.095567866E-3
6.655694956E0,3.075772524E-2,-1.082688570E-2,3.244400024E-3,3.276866258E-2
6.660713654E0,2.107378840E-2,2.238138765E-2,7.965087891E-3,3.175647487E-2
6.665732352E0,6.772175431E-3,-6.294637918E-3,7.897377014E-3,1.215949795E-2
6.670751102E0,1.391688734E-2,-1.578584313E-3,-8.798599243E-3,1.654046645E-2
6.675769800E0,4.373289645E-3,-1.822966337E-2,7.762908936E-4,1.876296662E-2
6.680788498E0,6.734915078E-3,-2.048876882E-2,1.739788055E-2,2.770983537E-2
6.685834123E0,9.023316205E-3,-3.725692630E-3,3.000259399E-3,1.021286333E-2
6.690852821E0,1.792706549E-3,-1.250147820E-3,6.008148193E-4,2.266637331E-3
6.695871518E0,1.367798448E-2,-1.547642052E-2,5.960464478E-4,2.066306180E-2
6.700890216E0,2.536018938E-2,-2.483306825E-2,-2.553939819E-2,4.372735236E-2
6.705908914E0,1.334638894E-2,-1.040798426E-2,8.039474487E-4,1.694398316E-2
6.710927664E0,-3.423072398E-3,8.647583425E-3,7.972717285E-4,9.334546906E-3
6.715956987E0,8.505716920E-3,1.465484500E-3,2.454566956E-2,2.601893078E-2
6.720975685E0,6.133146584E-3,8.596025407E-3,-8.915901184E-3,1.382029065E-2
6.725994383E0,-9.707286954E-4,1.091608405E-2,-4.090309143E-3,1.169759950E-2
6.731013081E0,1.336512715E-2,-5.839109421E-3,-6.432533264E-3,1.594049267E-2
6.736031831E0,1.807936281E-2,-1.759958267E-2,-1.588058472E-2,2.981277647E-2
6.741050529E0,2.507783473E-2,-1.025776565E-2,-2.525043488E-2,3.703652268E-2
6.746105529E0,8.315160871E-3,8.796282113E-3,-1.285552979E-3,1.217247410E-2
6.751124279E0,-1.183822751E-3,-1.269349456E-2,1.772880554E-2,2.183659283E-2
6.756142977E0,6.024435163E-3,-1.252071559E-2,3.328323364E-3,1.428775260E-2
6.761161727E0,2.505237609E-2,4.384562373E-3,8.052825928E-3,2.667759248E-2
6.766180425E0,1.050820947E-2,-1.210854948E-2,1.274013519E-2,2.047804877E-2
6.771199123E0,-1.435898244E-3,2.261355519E-3,3.131866455E-3,4.121179448E-3
6.776215737E0,1.532994211E-2,-7.243871689E-3,-8.773803711E-3,1.909084685E-2
6.781234435E0,3.908479959E-2,1.205503941E-5,-1.582717896E-2,4.216777559E-2
6.786253133E0,1.507961750E-2,-7.253363729E-3,-1.332378387E-2,2.138993609E-2
6.791271831E0,2.700949460E-2,2.117365599E-2,-3.712654114E-3,3.451985381E-2
6.796290581E0,-1.347250119E-2,-4.176795483E-4,8.193969727E-3,1.577415241E-2
6.801309279E0,1.036427915E-2,1.873090863E-3,-2.988433838E-2,3.168596585E-2
6.806351154E0,5.495138466E-3,-2.183020115E-2,-2.250766754E-2,3.183314824E-2
6.811370529E0,5.470491946E-3,-2.628237009E-3,-2.707099915E-2,2.774297941E-2
6.816389904E0,1.489618421E-2,-4.914104939E-3,4.037857056E-3,1.619719176E-2
6.821409279E0,4.879608750E-4,-2.481862903E-3,1.628875732E-3,3.008485572E-3
6.826428654E0,-1.765102148E-3,-2.387648821E-2,-1.026535034E-2,2.604956223E-2
6.831448029E0,-4.000075161E-3,1.909831166E-2,6.447792053E-3,2.055042900E-2
6.836485373E0,3.181777894E-3,-4.892051220E-5,6.394386292E-3,7.142428147E-3
6.841504748E0,2.941273153E-2,-4.887074232E-3,1.588821411E-3,2.985827564E-2
6.846524123E0,3.109857440E-3,1.412168145E-2,1.574516296E-3,1.454552171E-2
6.851543498E0,-1.120083779E-2,-9.736001492E-3,1.106357574E-2,1.851084008E-2
6.856562873E0,1.886494458E-2,-7.842251658E-2,-8.641719818E-2,1.182112913E-1
6.861582248E0,2.230643928E-1,-6.304091215E-1,-6.320228577E-1,9.201229681E-1
6.866613602E0,1.577896029E-1,-6.827865839E-1,-4.318809509E-1,8.231744856E-1
6.871632977E0,1.637936831E-1,-4.592683017E-1,1.680450439E-1,5.157469150E-1
6.876652352E0,2.537915409E-1,-2.480481267E-1,5.610074997E-1,6.638278648E-1
6.881671727E0,2.347142100E-1,-8.724342287E-2,6.774578094E-1,7.222542896E-1
6.886691102E0,2.084780931E-1,-1.196463406E-2,5.957307816E-1,6.312696982E-1
6.891710477E0,1.225696728E-1,2.019554973E-1,5.265331268E-1,5.771017945E-1
6.896742716E0,1.266457886E-2,3.140456080E-1,3.367481232E-1,4.606347077E-1
6.901762091E0,-8.912011236E-2,2.927963734E-1,-3.435707092E-2,3.079813615E-1
6.906781466E0,-1.958559901E-1,3.626676202E-1,-3.192014694E-1,5.213223088E-1
6.911800841E0,-2.868476808E-1,3.758278489E-1,-4.899930954E-1,6.808974941E-1
6.916820216E0,-3.297010660E-1,3.421456218E-1,-5.809402466E-1,7.505051562E-1
6.921839591E0,-3.083409071E-1,2.855588794E-1,-5.428276062E-1,6.864982146E-1
6.926872300E0,-2.991671562E-1,1.678891033E-1,-4.171218872E-1,5.400725943E-1
6.931891675E0,-2.354394197E-1,1.809498668E-2,-3.328313828E-1,4.080880766E-1
6.936911050E0,-1.027912349E-1,-1.065906435E-1,-2.230968475E-1,2.677681957E-1
6.941930425E0,2.374281734E-2,-5.227957666E-2,3.776073456E-2,6.872225684E-2
6.946949800E0,9.593442082E-2,3.183679283E-2,3.249387741E-1,3.402972251E-1
6.951969175E0,1.554004252E-1,1.738760620E-2,4.315366745E-1,4.589940331E-1
6.957007196E0,2.119522989E-1,-6.604015827E-2,3.709392548E-1,4.322973632E-1
6.962026571E0,2.298896462E-1,-3.479889035E-2,2.799444199E-1,3.639080796E-1
6.967045946E0,1.972872317E-1,7.850714028E-3,2.585802078E-1,3.253422957E-1
6.972065321E0,1.071809754E-1,1.471942663E-2,1.542396545E-1,1.883992941E-1
6.977084696E0,4.437268525E-2,-1.172702014E-2,5.314159393E-2,7.021742806E-2
6.982104071E0,-1.843238249E-2,-7.018998265E-3,-7.086372375E-2,7.355736812E-2
6.987141883E0,-5.571747944E-2,-9.529516101E-3,-1.154327393E-1,1.285300217E-1
6.992161258E0,-9.178434312E-2,2.078816295E-3,-1.643724442E-1,1.882737037E-1
6.997180633E0,-1.052508652E-1,-2.193781734E-2,-1.725091934E-1,2.032693638E-1
7.002200008E0,-1.151025370E-1,-1.719582081E-2,-1.758165359E-1,2.108453096E-1
7.007219383E0,-7.592047751E-2,4.188179970E-3,-1.482076645E-1,1.665742224E-1
7.012238758E0,-2.074860036E-2,1.625552028E-2,-1.065673828E-1,1.097786566E-1
7.017274227E0,1.737852395E-2,-1.273155212E-4,-2.251243591E-2,2.844009625E-2
7.022293602E0,3.676480055E-2,2.026855946E-4,4.420757294E-2,5.749783601E-2
7.027312977E0,7.107468694E-2,7.708556950E-3,7.948589325E-2,1.069066892E-1
7.032332352E0,9.890804440E-2,1.029681414E-2,1.429681778E-1,1.741514441E-1
7.037351727E0,6.072255969E-2,-6.244748831E-3,1.536512375E-1,1.653327824E-1
7.042371102E0,3.773070127E-2,-2.043022215E-2,1.381072998E-1,1.446188994E-1
7.047415893E0,3.182863444E-2,-2.293258905E-2,9.180450439E-2,9.983502711E-2
7.052435268E0,3.061513603E-2,-1.844212413E-2,3.638458252E-2,5.100231702E-2
7.057454643E0,-2.063265815E-2,-1.161471009E-2,-3.520011902E-2,4.242235793E-2
7.062474018E0,-3.153683990E-2,-1.424185932E-2,-4.917144775E-2,6.012681683E-2
7.067493393E0,-4.276432097E-2,9.388990700E-3,-8.915042877E-2,9.932139369E-2
7.072512768E0,-4.021796957E-2,3.545820713E-2,-9.078121185E-2,1.054324331E-1
7.077531102E0,-4.038174078E-2,4.348516464E-3,-8.051872253E-2,9.018236669E-2
7.082550477E0,-1.213904098E-2,-1.214313507E-2,-3.945636749E-2,4.303041925E-2
7.087569852E0,1.323203743E-2,-2.374665439E-2,-1.536369324E-2,3.122552608E-2
7.092589227E0,9.987890720E-3,-2.332456410E-2,1.327896118E-2,2.863780825E-2
7.097608602E0,3.326646239E-2,-3.901317716E-3,7.018756866E-2,7.776999804E-2
7.102627977E0,4.235926270E-2,3.379166126E-3,5.060100555E-2,6.607713420E-2
7.107666883E0,3.263047338E-2,8.013851941E-3,5.255317688E-2,6.237632576E-2
7.112686258E0,2.794004232E-2,3.107309341E-3,4.973602295E-2,5.713119389E-2
7.117705633E0,1.869370043E-2,-8.989021182E-3,2.318382263E-2,3.110862532E-2
7.122725008E0,2.449840307E-3,-1.385790110E-2,3.011131287E-2,3.323754357E-2
7.127744383E0,4.898533225E-4,1.472698152E-2,-1.290321350E-2,1.958613948E-2
7.132763758E0,-6.254144013E-3,-9.238630533E-3,-3.655433655E-2,3.821892374E-2
7.137798289E0,-2.022324130E-2,2.009719610E-4,-1.962471008E-2,2.818065159E-2
7.142817664E0,-1.528180391E-2,-2.160102129E-3,-2.421283722E-2,2.871342992E-2
7.147837039E0,-1.782096550E-2,-9.096890688E-3,-2.638244629E-2,3.311153430E-2
7.152856414E0,-3.709509969E-3,-2.547763288E-2,-2.615833282E-2,3.670325078E-2
7.157875789E0,3.263168037E-3,7.785111666E-4,1.444435120E-2,1.482881070E-2
7.162895164E0,1.492811739E-2,-1.108913124E-2,2.382755280E-2,3.022531708E-2
7.167931987E0,3.367472440E-2,3.325715661E-3,4.626274109E-3,3.415332868E-2
7.172951362E0,1.441162825E-2,1.519183815E-2,1.884174347E-2,2.816910137E-2
7.177970737E0,1.911715418E-2,-1.110115647E-2,2.818584442E-2,3.582098665E-2
7.182990112E0,9.633593261E-3,-6.345465779E-3,-7.684707642E-3,1.386094465E-2
7.188009487E0,-4.262588918E-3,-4.005327821E-3,1.876831055E-3,6.142866598E-3
7.193028862E0,8.089326322E-3,-1.108202338E-2,-5.269050598E-3,1.469732414E-2
7.198065685E0,-5.999900401E-3,3.175750375E-3,-4.768371582E-4,6.805260387E-3
7.203085060E0,-5.772694945E-3,1.023963839E-2,-5.226135254E-3,1.286416305E-2
7.208104435E0,6.175629795E-3,1.714139432E-2,-7.559776306E-3,1.972602394E-2
7.213123810E0,1.396305859E-3,-4.520416260E-3,-3.719329834E-4,4.745752560E-3
7.218143185E0,8.430458605E-3,-9.268909693E-3,-2.412414551E-2,2.718381349E-2
7.223162560E0,1.303045452E-2,1.437257230E-2,1.408386230E-2,2.397329258E-2
7.228196102E0,1.283873618E-2,1.896752417E-2,2.089500427E-3,2.299926372E-2
7.233215477E0,7.949799299E-3,-1.422420144E-2,-7.428169250E-3,1.790823592E-2
7.238234852E0,7.906764746E-3,-1.155713201E-2,-7.364273071E-3,1.582140154E-2
7.243254227E0,2.908717841E-2,1.711419970E-2,-2.550125122E-3,3.384468817E-2
7.248273602E0,2.737775445E-3,-6.818473339E-3,9.347915649E-3,1.188993356E-2
7.253292977E0,-8.983448148E-3,-4.421204329E-3,2.589702606E-2,2.776518228E-2
7.258335008E0,1.734946668E-2,-4.472255707E-3,2.092838287E-2,2.754999592E-2
7.263354383E0,2.688631415E-2,-7.001668215E-3,1.747131348E-3,2.783791865E-2
7.268373758E0,7.605925202E-4,2.147483826E-2,-1.252460480E-2,2.487193005E-2
7.273393133E0,9.314641356E-4,-1.674896479E-2,-2.919197083E-3,1.702695388E-2
7.278412508E0,-1.326650381E-3,2.410680056E-3,-2.895355225E-3,3.994303624E-3
7.283431883E0,1.771054417E-2,-9.522974491E-3,-2.187633514E-2,2.971404478E-2
7.288459435E0,-3.848493099E-3,-4.677131772E-3,4.436492920E-3,7.507924492E-3
7.293478810E0,-6.224222481E-3,2.607494593E-3,1.152801514E-2,1.335796042E-2
7.298498185E0,1.755353808E-2,2.165862918E-2,-9.946823120E-3,2.960003729E-2
7.303517560E0,7.980346680E-3,2.629817277E-2,2.014160156E-3,2.755606404E-2
7.308536935E0,-1.333804801E-2,-1.385957003E-4,1.149749756E-2,1.761008755E-2
7.313556310E0,-8.349247277E-3,-2.249330282E-4,-7.604598999E-3,1.129559431E-2
7.318589591E0,1.549829543E-2,1.647444814E-2,-2.788543701E-3,2.278992275E-2
7.323609487E0,1.074465364E-2,-1.473639905E-2,-3.938674927E-4,1.824182476E-2
7.328629383E0,1.088506728E-2,-3.962367773E-4,-7.519721985E-3,1.323585706E-2
7.333649279E0,6.118528545E-3,-5.023017526E-3,-1.695823669E-2,1.871493757E-2
7.338669175E0,2.034260333E-2,-1.441513002E-2,-1.206588745E-2,2.769843179E-2
7.343689071E0,-8.364237845E-3,-1.433125138E-2,-4.837989807E-3,1.728442612E-2
7.348724279E0,1.280322671E-3,-2.318710089E-3,-4.673004150E-5,2.649118026E-3
7.353744175E0,3.666341305E-3,-1.886035502E-2,4.705429077E-3,1.978120605E-2
7.358764071E0,-8.219361305E-3,1.947803795E-2,1.892185211E-2,2.837231662E-2
7.363783966E0,-3.323160112E-3,2.771168947E-4,2.134323120E-3,3.959232512E-3
7.368803862E0,2.750430256E-2,-4.356056452E-3,-2.163696289E-2,3.526499752E-2
7.373823758E0,2.022304386E-2,9.950004518E-3,2.299308777E-3,2.265526238E-2
7.378855268E0,-3.523215652E-3,-4.526749253E-3,4.652023315E-3,7.385514759E-3
7.383875164E0,-1.044459641E-3,2.782046795E-4,9.364128113E-3,9.426303045E-3
7.388895060E0,1.414343715E-3,2.719983459E-3,1.403713226E-2,1.436801170E-2
7.393914956E0,-3.221929073E-3,-1.877003908E-2,-2.646636963E-2,3.260619443E-2
7.398934852E0,1.588238776E-2,-9.147718549E-3,-9.617805481E-3,2.069862744E-2
7.403954748E0,4.049561918E-3,-6.680160761E-3,7.090568542E-3,1.054986549E-2
7.408988758E0,8.893139660E-3,-1.130719483E-2,9.407043457E-3,1.718816612E-2
7.414008654E0,4.089787602E-3,5.483970046E-3,1.170539856E-2,1.355789975E-2
7.419028550E0,-1.244785264E-2,-1.620545983E-3,-1.689815521E-2,2.105048347E-2
7.424048446E0,4.461862147E-3,5.535349250E-3,-1.675796509E-2,1.820378255E-2
7.429068341E0,1.761615276E-3,-8.694291115E-3,-3.086948395E-2,3.211882665E-2
7.434088237E0,9.647524357E-2,-3.287227154E-1,-3.465299606E-1,4.872875022E-1
7.439121675E0,1.812432408E-1,-4.081055522E-1,-4.219837189E-1,6.143854760E-1
7.444141571E0,1.529051214E-1,-1.708309799E-1,1.065683365E-1,2.528240697E-1
7.449161466E0,1.167127937E-1,6.773024797E-3,5.047693253E-1,5.181310855E-1
7.454181362E0,9.628235549E-2,2.672159076E-1,6.834306717E-1,7.401027741E-1
7.459201258E0,2.072250843E-2,3.083730340E-1,5.208759308E-1,6.056691223E-1
7.464221154E0,-4.713403434E-2,2.467237562E-1,1.625070572E-1,2.991701401E-1
7.469256623E0,-1.132880673E-1,1.459787786E-1,-1.952285767E-1,2.688088301E-1
7.474276518E0,-1.620866805E-1,1.386257261E-2,-4.715595245E-1,4.988312822E-1
7.479296414E0,-1.776024103E-1,1.660756767E-2,-5.863990784E-1,6.129292835E-1
7.484316310E0,-1.453380287E-1,4.830475897E-2,-4.935894012E-1,5.168045949E-1
7.489336206E0,-1.311148703E-1,1.818110049E-2,-3.112716675E-1,3.382480046E-1
7.494356102E0,-5.101475120E-2,-3.074847162E-2,-1.043395996E-1,1.201446020E-1
7.499397560E0,2.323873341E-3,-5.117569864E-2,6.760692596E-2,8.482363442E-2
7.504417456E0,8.911665529E-2,1.599146426E-2,2.713699341E-1,2.860754207E-1
7.509437352E0,1.123963296E-1,1.339563727E-2,3.855247498E-1,4.017980969E-1
7.514457248E0,1.132849157E-1,-6.068259478E-3,3.276748657E-1,3.467580043E-1
7.519477143E0,1.251248717E-1,1.031502336E-2,2.417888641E-1,2.724417150E-1
7.524497039E0,1.261327863E-1,2.175819874E-2,8.771800995E-2,1.551687735E-1
7.529516987E0,7.554653287E-2,1.895643771E-2,-1.043510437E-2,7.858445497E-2
7.534536883E0,-5.344063044E-3,-2.514004707E-3,-7.450866699E-2,7.474236206E-2
7.539556779E0,-1.946202293E-2,1.952052116E-6,-1.237907410E-1,1.253112840E-1
7.544576675E0,-5.329734087E-2,-1.376122236E-4,-1.108961105E-1,1.230389077E-1
7.549596571E0,-8.799546957E-2,-2.635489404E-2,-8.622074127E-2,1.259833296E-1
7.554616466E0,-7.598556578E-2,-1.925186813E-2,-5.937099457E-2,9.833288173E-2
7.559651675E0,-6.232954562E-2,2.120457590E-2,-8.024883270E-2,1.038001996E-1
7.564671571E0,-2.544289082E-2,6.739534438E-3,-6.769084930E-2,7.262790853E-2
7.569691466E0,1.345999539E-2,1.897215843E-3,-3.385734558E-2,3.648411646E-2
7.574711362E0,6.185296178E-2,3.045679629E-2,-4.781723022E-2,8.390406919E-2
7.579731258E0,6.300881505E-2,1.855069399E-2,2.475738525E-3,6.572950861E-2
7.584751154E0,5.517092347E-2,1.402524114E-2,5.234813690E-2,7.733605642E-2
7.589786362E0,3.852236271E-2,2.151623368E-3,9.704494476E-2,1.044333434E-1
7.594806258E0,2.232336253E-2,9.224824607E-3,1.057319641E-1,1.084558811E-1
7.599826154E0,1.591420174E-2,-7.570311427E-3,1.024665833E-1,1.039710157E-1
7.604846050E0,4.810892045E-3,-1.942040026E-2,3.509044647E-2,4.039351510E-2
7.609865946E0,2.781994641E-3,-4.795657098E-2,-3.409862518E-2,5.890915408E-2
7.614885841E0,4.228584468E-2,-2.113976777E-1,-2.286014557E-1,3.142223676E-1
7.619912091E0,8.006114513E-2,-2.946106791E-1,-3.026895523E-1,4.299141825E-1
7.624931987E0,5.137578398E-2,-4.703423381E-2,1.342487335E-2,7.093601028E-2
7.629951883E0,1.070155948E-2,9.580935538E-2,3.007516861E-1,3.158251615E-1
7.634971779E0,3.626862168E-2,1.799260378E-1,3.766136169E-1,4.189589580E-1
7.639991675E0,2.459899336E-2,1.941882074E-1,2.760448456E-1,3.384005425E-1
7.645011571E0,-1.123234630E-3,1.512655318E-1,7.416439056E-2,1.684721923E-1
7.650047716E0,-4.640881717E-2,3.077474982E-2,-1.474008560E-1,1.575686387E-1
7.655067612E0,-8.534348011E-2,9.414866567E-3,-2.649526596E-1,2.785176137E-1
7.660087508E0,-5.863426253E-2,4.777818173E-2,-2.769918442E-1,2.871327448E-1
7.665107404E0,-7.346671075E-2,3.371666372E-2,-2.271566391E-1,2.411105756E-1
7.670127300E0,-6.034638360E-2,-1.712366939E-3,-1.207208633E-1,1.349746089E-1
7.675147196E0,-4.940919578E-3,-2.517729998E-2,-1.279640198E-2,2.867153683E-2
7.680177508E0,2.144060284E-2,-9.870976210E-4,8.234977722E-2,8.510087908E-2
7.685197404E0,3.857320547E-2,-1.067212224E-2,1.648178101E-1,1.696074789E-1
7.690217300E0,3.263897449E-2,-1.324549317E-3,1.895799637E-1,1.923736461E-1
7.695237196E0,7.514918596E-2,1.021656394E-2,1.666154861E-1,1.830641924E-1
7.700257091E0,7.516915351E-2,7.563896477E-3,1.010799408E-1,1.261933778E-1
7.705276987E0,5.443292111E-2,1.453913003E-2,7.579803467E-3,5.684876976E-2
7.710321414E0,3.888821602E-2,-1.644818485E-2,-1.625156403E-2,4.524322561E-2
7.715341310E0,3.032995760E-2,-9.065881371E-3,-3.987979889E-2,5.091654832E-2
7.720361206E0,2.550544590E-2,-1.109654009E-1,-1.535730362E-1,1.911766864E-1
7.725381102E0,4.240576923E-2,-3.163252473E-1,-3.161849976E-1,4.492581263E-1
7.730400998E0,2.528788894E-2,-1.873442829E-1,-7.359504700E-2,2.028634728E-1
7.735420893E0,5.686253309E-2,-9.285235405E-2,1.907186508E-1,2.196099066E-1
7.740477196E0,4.016092420E-2,4.789226502E-2,3.530359268E-1,3.585260583E-1
7.745497091E0,4.199067503E-2,1.820880175E-1,3.595666885E-1,4.052252045E-1
7.750516987E0,2.108708769E-2,2.078469843E-1,2.377510071E-1,3.164973547E-1
7.755536883E0,-2.562056854E-2,1.908370852E-1,4.806232452E-2,1.984570323E-1
7.760556779E0,-7.726462185E-2,1.268734634E-1,-1.685409546E-1,2.246614139E-1
7.765576675E0,-1.106182486E-1,5.467035621E-2,-3.168048859E-1,3.399861475E-1
7.770574800E0,-1.075063795E-1,2.539031208E-3,-3.711690903E-1,3.864331273E-1
7.775594696E0,-9.162461758E-2,-8.511245251E-3,-2.896623611E-1,3.039272862E-1
7.780614591E0,-6.467258185E-2,-1.952129602E-2,-1.589422226E-1,1.727027908E-1
7.785634487E0,-2.875469252E-2,-1.174744964E-2,-2.931308746E-2,4.270939021E-2
7.790654383E0,-7.388599217E-3,-2.815738320E-2,9.685611725E-2,1.011362303E-1
7.795674279E0,4.752481729E-2,-2.093520761E-2,1.958360672E-1,2.026046801E-1
7.800710425E0,9.826380014E-2,7.448382676E-3,2.155876160E-1,2.370427661E-1
7.805730321E0,1.259212196E-1,3.089769930E-2,1.947851181E-1,2.339915887E-1
7.810750216E0,9.246873111E-2,-5.184844136E-3,1.266365051E-1,1.568889839E-1
7.815770112E0,4.819597304E-2,9.178504348E-3,5.430316925E-2,7.318422610E-2
7.820790008E0,5.211725831E-2,1.386923343E-2,-7.927894592E-3,5.451069402E-2
7.825809904E0,2.755145729E-2,-2.910986543E-3,-3.400897980E-2,4.386533196E-2
7.830839748E0,-1.870900765E-2,-3.375372291E-2,-3.373718262E-2,5.125951881E-2
7.835860060E0,-6.035482138E-2,-2.511888742E-4,-6.196975708E-2,8.650444123E-2
7.840880373E0,-5.011834949E-2,-5.139350891E-3,-4.482841492E-2,6.743773919E-2
7.845900685E0,-5.019853264E-2,-7.663652301E-3,-5.870723724E-2,7.762192957E-2
7.850920998E0,-2.704367787E-2,-7.687687874E-3,-7.959175110E-2,8.441153891E-2
7.855941362E0,-3.760008886E-2,4.165776074E-3,-6.466674805E-2,7.491934781E-2
7.860983237E0,-2.833537757E-3,1.132614911E-2,-3.561115265E-2,3.747618954E-2
7.866003550E0,5.101685971E-2,4.225365818E-3,7.452011108E-3,5.173109472E-2
7.871023862E0,3.837101907E-2,-4.932075739E-3,3.590488434E-2,5.278087906E-2
7.876044175E0,5.475459248E-2,9.586915374E-3,6.648921967E-2,8.666481798E-2
7.881064487E0,2.633471042E-2,1.437870413E-2,7.780933380E-2,8.339398379E-2
7.886084852E0,1.746684313E-2,-1.665939391E-2,7.477760315E-2,7.857681558E-2
7.891102560E0,3.005301207E-2,-2.848614752E-2,8.364963531E-2,9.333758955E-2
7.896122873E0,2.047255635E-3,-2.601279318E-2,1.880455017E-2,3.216314307E-2
7.901143185E0,-1.168277115E-2,-2.233833075E-3,-1.936626434E-2,2.272728199E-2
7.906163498E0,-6.605669856E-3,-1.423366368E-2,-5.246639252E-2,5.476270994E-2
7.911183810E0,1.433269680E-2,-4.022860527E-2,-9.241008759E-2,1.018007425E-1
7.916204175E0,8.342590183E-2,-1.630893201E-1,-2.579078674E-1,3.163455002E-1
7.921236727E0,2.217454761E-1,-1.444553137E-1,-2.604722977E-1,3.713276339E-1
7.926257039E0,3.942407072E-1,2.099189162E-2,-3.496456146E-2,3.963444402E-1
7.931277352E0,6.882962584E-2,1.846183091E-2,2.955398560E-1,3.040101364E-1
7.936297664E0,-6.973886490E-2,-3.259047866E-3,4.807214737E-1,4.857646199E-1
7.941317977E0,4.936934263E-2,6.768833846E-2,4.030294418E-1,4.116452042E-1
7.946338341E0,1.410411894E-1,3.816625476E-2,1.145648956E-1,1.856728182E-1
7.951379018E0,6.633123010E-2,-6.464752555E-2,-1.477231979E-1,1.743596222E-1
7.956399331E0,-1.898531988E-2,-8.805333078E-2,-2.533998489E-1,2.689336626E-1
7.961419643E0,-5.014947057E-2,-2.326421440E-2,-2.085266113E-1,2.157302499E-1
7.966439956E0,-2.915422618E-2,-8.743897080E-3,-1.402654648E-1,1.435298758E-1
7.971460268E0,-9.349101037E-2,2.460642904E-2,-3.456878662E-2,1.026695981E-1
7.976480633E0,-2.622429654E-2,1.168570146E-1,4.648494720E-2,1.284683849E-1
7.981495685E0,3.552013636E-2,6.812867522E-2,2.471637726E-2,8.070994845E-2
7.986515998E0,-2.719310299E-2,-1.804549992E-2,-1.824474335E-2,3.738951159E-2
7.991536310E0,3.600145131E-2,-2.479532361E-2,-3.946018219E-2,5.888988494E-2
7.996556623E0,6.799421459E-2,4.685094953E-2,1.551628113E-2,8.401773426E-2
8.001576935E0,6.243681908E-2,5.360235274E-2,8.903026581E-2,1.212351303E-1
8.006597300E0,1.985521615E-2,2.228979021E-2,1.191644669E-1,1.228463859E-1
8.011633081E0,-1.947174221E-2,-1.599279046E-2,6.114673615E-2,6.613502425E-2
