"Time (s)","Linear Acceleration x (m/s^2)","Linear Acceleration y (m/s^2)","Linear Acceleration z (m/s^2)","Absolute acceleration (m/s^2)"
5.518979900E-2,-2.153700590E-2,-4.402416945E-2,-2.892780304E-2,5.691034974E-2
6.017594400E-2,-4.825110734E-2,-8.021229506E-2,3.627777100E-3,9.367679757E-2
6.516203800E-2,-5.574062467E-2,-1.384561658E-1,1.076269150E-1,1.840127167E-1
7.014818400E-2,-4.026617110E-2,-1.546583176E-1,1.715345383E-1,2.344454255E-1
7.535552800E-2,-1.867923141E-2,-1.525806487E-1,2.076654434E-1,2.583693179E-1
8.034167400E-2,-8.440583944E-3,-1.769642234E-1,2.255830765E-1,2.868367205E-1
8.532781900E-2,-3.240904212E-2,-1.732107997E-1,2.420234680E-1,2.993788339E-1
9.031396500E-2,-2.217982709E-2,-1.433792114E-1,2.020702362E-1,2.487607754E-1
9.530005900E-2,-2.547532320E-3,-1.020396054E-1,1.931915283E-1,2.184983698E-1
1.002862050E-1,-4.826501012E-3,-5.807408690E-2,1.127271652E-1,1.268988119E-1
1.054901630E-1,-2.328751981E-2,-1.792788506E-3,2.450942993E-3,2.348467141E-2
1.104763090E-1,-5.452081561E-2,3.993093967E-2,-8.520412445E-2,1.087508258E-1
1.154624550E-1,-7.996620238E-2,7.499629259E-2,-1.364727020E-1,1.750538084E-1
1.204486010E-1,-7.299863547E-2,8.407932520E-2,-1.491947174E-1,1.861644365E-1
1.254346940E-1,-5.769194663E-2,5.939549208E-2,-1.186141968E-1,1.446565341E-1
1.304208400E-1,-1.131255925E-2,4.976910353E-2,-9.899806976E-2,1.113802293E-1
1.356214650E-1,3.529465199E-2,1.093263626E-1,-8.970260620E-2,1.457550122E-1
1.406076110E-1,9.375908971E-2,1.187388897E-1,-9.706211090E-2,1.797518962E-1
1.455937570E-1,1.272280067E-1,5.724704266E-2,-9.057617188E-2,1.663377062E-1
1.505799030E-1,7.506184280E-2,3.535056114E-2,-4.093456268E-2,9.251800279E-2
1.555659970E-1,3.925052285E-2,1.669400930E-2,1.354217529E-2,4.475135755E-2
1.605521420E-1,4.890102148E-2,-3.425240517E-3,8.350372314E-3,4.972696343E-2
1.657703190E-1,7.936416566E-2,-3.181189299E-2,3.102302551E-2,9.095655798E-2
1.707564650E-1,6.298558414E-2,-8.931744099E-2,9.912395477E-2,1.475477803E-1
1.757426110E-1,4.552282393E-2,-1.036647260E-1,1.973905563E-1,2.275560033E-1
1.807287570E-1,7.327911258E-2,-1.064721346E-1,2.810478210E-1,3.093445029E-1
1.857148510E-1,2.865417302E-2,-9.337824583E-2,2.626447678E-1,2.802192578E-1
1.907009970E-1,1.354651153E-2,-8.578068018E-2,2.288608551E-1,2.447838313E-1
1.958998510E-1,3.383059800E-2,-7.880637050E-2,2.102775574E-1,2.270938232E-1
2.008859970E-1,1.382087171E-2,-3.994533420E-2,1.366586685E-1,1.430462789E-1
2.058721420E-1,-1.531985402E-2,-4.441899061E-2,7.692432404E-2,9.013931596E-2
2.108582880E-1,-2.340297401E-2,-9.317576885E-3,1.427459717E-2,2.895307507E-2
2.158443820E-1,-8.473679423E-3,2.938342094E-2,-2.334594727E-2,3.847365232E-2
2.208305280E-1,1.919759810E-2,8.802562952E-2,-7.629776001E-2,1.180610326E-1
2.260233920E-1,2.224873006E-2,9.630912542E-2,-9.992885590E-2,1.405568564E-1
2.310095380E-1,5.744913220E-2,1.257581711E-1,-1.370525360E-1,1.946764444E-1
2.359956840E-1,6.359964609E-2,1.291057467E-1,-1.289596558E-1,1.932454440E-1
2.409818300E-1,6.960877776E-2,1.327480078E-1,-1.375217438E-1,2.034198749E-1
2.459679240E-1,8.982568979E-2,8.749300241E-2,-9.918689728E-2,1.598803322E-1
2.509540690E-1,7.737411559E-2,5.084109306E-2,-3.606605530E-2,9.935960372E-2
2.561603720E-1,3.302595019E-2,1.526707411E-2,-9.527206421E-3,3.761069795E-2
2.611465170E-1,-1.915407181E-2,-3.111249208E-2,3.046798706E-2,4.757272187E-2
2.661326630E-1,-1.336547732E-2,-2.952247858E-2,4.850578308E-2,5.833544135E-2
2.711188090E-1,-4.815503955E-3,-2.098548412E-2,7.790756226E-2,8.082801420E-2
2.761049030E-1,2.507922053E-2,-5.966338515E-2,1.090850830E-1,1.268394346E-1
2.810910490E-1,5.714222789E-2,-4.849678278E-2,1.396875381E-1,1.585237536E-1
2.862916220E-1,6.061518192E-2,-6.593975425E-2,1.721000671E-1,1.940120733E-1
2.912777670E-1,4.985912144E-2,-7.164907455E-2,1.240959167E-1,1.517211865E-1
2.962639130E-1,4.607245326E-2,-7.068705559E-2,1.052799225E-1,1.349192086E-1
3.012500590E-1,-1.435831189E-2,-7.948043942E-2,9.157752991E-2,1.221054682E-1
3.062361530E-1,-7.650418580E-2,-8.614850044E-2,7.348251343E-2,1.366533364E-1
3.112222990E-1,-8.847950399E-2,-1.190092266E-1,6.047058105E-2,1.601515214E-1
3.164246420E-1,-1.030701771E-1,-9.544676542E-2,4.774951935E-2,1.483696837E-1
3.214107880E-1,-6.843760610E-2,-7.489112020E-2,1.174354553E-2,1.021288239E-1
3.263969340E-1,-3.471674025E-2,-4.078269005E-2,-3.540420532E-2,6.420231784E-2
3.313830800E-1,-3.009086847E-2,1.640385389E-2,-1.218204498E-1,1.265494717E-1
3.363691740E-1,-6.946638227E-3,6.112951040E-2,-1.950817108E-1,2.045530413E-1
3.413553190E-1,-7.893756032E-3,9.377396107E-2,-2.507343292E-1,2.678125669E-1
3.465587050E-1,-2.322606742E-2,7.896554470E-2,-2.725687027E-1,2.847256665E-1
3.515448510E-1,-2.406965196E-2,9.323066473E-2,-2.870893478E-1,3.028062064E-1
3.565309970E-1,-4.607628286E-2,8.412009478E-2,-3.038387299E-1,3.186176203E-1
3.615171420E-1,-1.580612361E-2,1.017331481E-1,-3.180847168E-1,3.343312041E-1
3.665032360E-1,3.057558835E-2,6.334346533E-2,-2.756080627E-1,2.844416732E-1
3.714893820E-1,4.103478789E-2,4.954278469E-2,-2.385654449E-1,2.470866505E-1
3.766927670E-1,3.027603030E-2,8.649230003E-4,-1.360321045E-1,1.393632647E-1
3.816789130E-1,7.952272892E-3,-2.593362331E-2,-5.388069153E-2,6.032346460E-2
3.866650590E-1,-3.259739280E-2,-7.140517235E-2,1.765727997E-2,8.045538013E-2
3.916511530E-1,1.994287968E-2,-1.237540245E-1,9.058094025E-2,1.546534312E-1
3.966372990E-1,1.022341847E-2,-1.355460584E-1,1.034765244E-1,1.708351349E-1
4.016234440E-1,-3.482134640E-2,-8.108279109E-2,1.091308594E-1,1.403441828E-1
4.068452670E-1,-6.168723106E-3,-8.904820681E-2,7.693004608E-2,1.178383141E-1
4.118314650E-1,2.210794389E-2,-8.291038871E-2,2.626514435E-2,8.973712468E-2
4.168175590E-1,3.563871980E-2,-3.652191162E-2,2.827548981E-2,5.833928094E-2
4.218036530E-1,6.514859200E-2,-1.433491707E-4,2.554130554E-2,6.997655234E-2
4.267897990E-1,7.991400361E-2,-9.118556976E-3,4.650115967E-2,9.290723279E-2
4.317759440E-1,6.628052890E-2,-2.271646261E-2,5.064392090E-2,8.645202663E-2
4.369739650E-1,8.387818933E-2,-3.360718489E-2,3.579902649E-2,9.719343506E-2
4.419601110E-1,1.036611497E-1,-2.063161135E-2,4.006481171E-2,1.130331212E-1
4.469462570E-1,9.498113394E-2,-2.675104141E-2,1.081819534E-1,1.464253020E-1
4.519323510E-1,9.373012185E-2,-5.652502179E-2,1.423635483E-1,1.795767070E-1
4.569184970E-1,7.382804155E-2,-6.490874290E-2,1.524982452E-1,1.814371501E-1
4.619046420E-1,7.789251208E-2,-6.156975031E-2,1.436042786E-1,1.745859857E-1
4.670997990E-1,8.919610083E-2,-8.205643296E-2,1.514110565E-1,1.939446071E-1
4.720859440E-1,8.142523468E-2,-1.969420910E-2,1.141653061E-1,1.416038412E-1
4.770720900E-1,6.418654323E-2,-1.493793726E-2,1.081495285E-1,1.266466534E-1
4.820581840E-1,2.118974924E-2,-3.644698858E-2,7.616329193E-2,8.705306133E-2
4.870443300E-1,-1.196084917E-2,-4.834908247E-2,1.611518860E-2,5.234878214E-2
4.920304760E-1,-3.079575300E-2,-2.221494913E-2,4.118919373E-3,3.819486699E-2
4.972275070E-1,-4.712197185E-2,1.056736708E-2,2.069950104E-2,5.254159134E-2
5.022136530E-1,-3.483982384E-2,9.951829910E-3,-1.741218567E-2,4.019995589E-2
5.071997990E-1,-1.316975057E-2,3.557646275E-2,-2.432060242E-2,4.506238713E-2
5.121858920E-1,-2.486881614E-2,1.368415356E-2,-1.694488525E-2,3.305817918E-2
5.171720380E-1,-3.150258958E-2,5.128914118E-2,-4.047393799E-2,7.253363916E-2
5.221581840E-1,-1.215051115E-2,2.460283041E-2,-2.583122253E-2,3.768535847E-2
5.273651630E-1,-1.003444195E-4,4.097330570E-2,-2.320289612E-2,4.708711328E-2
5.323586010E-1,2.611295879E-2,5.248922110E-2,-8.747100830E-3,5.927492489E-2
5.373520900E-1,4.490824044E-2,5.667537451E-2,-2.763462067E-2,7.741137122E-2
5.423455280E-1,6.337481737E-2,5.370742083E-2,-4.396438599E-2,9.398788094E-2
5.473390170E-1,4.835374653E-2,6.505846977E-2,-7.200145721E-2,1.084200126E-1
5.523325070E-1,2.384002507E-2,7.171481848E-2,-6.656455994E-2,1.007085032E-1
5.574969340E-1,2.544324100E-2,9.244692326E-2,-8.490180969E-2,1.280707204E-1
5.624903720E-1,7.204823196E-2,9.410303831E-2,-1.291790009E-1,1.753098509E-1
5.674838610E-1,8.707895875E-2,9.827309847E-2,-1.564435959E-1,2.042423698E-1
5.724772990E-1,1.065420806E-1,1.312430501E-1,-1.811094284E-1,2.477429680E-1
5.774707880E-1,1.046493053E-1,1.310433745E-1,-1.652402878E-1,2.354319346E-1
5.824642780E-1,1.027826965E-1,1.168713570E-1,-1.400480270E-1,2.093720293E-1
5.876315690E-1,9.633079171E-2,6.505328417E-2,-6.525802612E-2,1.333047681E-1
5.926250070E-1,1.165696979E-1,6.830990314E-3,1.358127594E-2,1.175568286E-1
5.976184970E-1,8.258774877E-2,-5.567175150E-2,7.034301758E-2,1.219353119E-1
6.026119340E-1,1.156517863E-2,-1.272721589E-1,1.218538284E-1,1.765794758E-1
6.076054240E-1,-6.304730475E-2,-1.558639407E-1,1.919298172E-1,2.551579616E-1
6.125989130E-1,-1.034926772E-1,-1.703705192E-1,2.353076935E-1,3.083935127E-1
6.177761010E-1,-1.195082664E-1,-1.851975024E-1,2.545986176E-1,3.367503477E-1
6.227695380E-1,-1.331672072E-1,-1.530303955E-1,1.954011917E-1,2.816619121E-1
6.277630280E-1,-7.578045130E-2,-8.117115498E-2,1.486234665E-1,1.855272702E-1
6.327564650E-1,-4.061545432E-2,-1.725119352E-2,7.851123810E-2,9.006238568E-2
6.377499550E-1,-4.204197228E-2,3.905838728E-2,-7.632255554E-3,5.789072788E-2
6.427434440E-1,-7.024733722E-2,4.516220093E-2,-5.028820038E-2,9.748443915E-2
6.479093300E-1,-7.757546008E-2,8.455014229E-2,-8.544826508E-2,1.430667137E-1
6.529027670E-1,-6.889866292E-2,1.119542122E-1,-1.179351807E-1,1.766054309E-1
6.578962570E-1,-6.070408225E-2,9.905421734E-2,-1.240272522E-1,1.699396448E-1
6.628896940E-1,-4.323023558E-2,1.102235317E-1,-1.063203812E-1,1.591292043E-1
6.678831840E-1,-3.090514243E-2,8.587044477E-2,-8.876609802E-2,1.273117484E-1
6.728766740E-1,4.789271951E-2,6.904929876E-2,-3.811264038E-2,9.227183535E-2
6.780315170E-1,1.717555523E-2,9.044277668E-2,5.486583710E-2,1.071688184E-1
6.830249550E-1,-5.703940988E-3,5.225777626E-2,4.253387451E-2,6.762056347E-2
6.880184440E-1,-5.438621342E-2,-2.087271214E-2,4.928493500E-2,7.630553807E-2
6.930118820E-1,-3.083768487E-2,-1.009106636E-2,6.783390045E-2,7.519461735E-2
6.980053720E-1,-2.588188648E-2,-3.982961178E-2,1.004686356E-1,1.111315291E-1
7.029988610E-1,-2.765224874E-2,-6.703707576E-2,1.518297195E-1,1.682583731E-1
7.081679240E-1,-3.389261663E-2,-8.722424507E-2,2.003993988E-1,2.211711948E-1
7.131613610E-1,6.942415237E-2,-1.006000638E-1,2.485847473E-1,2.770098597E-1
7.181548510E-1,1.196269691E-1,-8.587837219E-2,2.702655792E-1,3.077810746E-1
7.231482880E-1,1.219093502E-1,-1.196206510E-1,3.250694275E-1,3.672071929E-1
7.281417780E-1,6.479305029E-2,-1.252512932E-1,3.652000427E-1,3.914806471E-1
7.331352670E-1,1.961430907E-2,-1.480315626E-1,3.361473083E-1,3.678220732E-1
7.383021940E-1,-1.730352640E-3,-1.359330714E-1,3.216514587E-1,3.491997350E-1
7.432956320E-1,-3.736971319E-2,-1.126143634E-1,2.764301300E-1,3.008190604E-1
7.482891220E-1,-3.011360765E-2,-1.041034758E-1,1.959791183E-1,2.239468193E-1
7.532825590E-1,-4.941126704E-2,-4.582959414E-2,4.969692230E-2,8.373535153E-2
7.582760490E-1,-3.549200296E-2,1.686227322E-2,-2.721786499E-3,3.938815373E-2
7.632695380E-1,6.561696529E-3,7.474488020E-2,-9.985637665E-2,1.249045593E-1
7.684448510E-1,1.001444459E-2,8.983534575E-2,-1.700687408E-1,1.925981699E-1
7.734382880E-1,8.639603853E-3,1.127097607E-1,-1.779756546E-1,2.108399074E-1
7.784317780E-1,1.224321127E-2,1.146304607E-1,-1.549739838E-1,1.931501343E-1
7.834252150E-1,6.323814392E-3,7.650905848E-2,-1.345605850E-1,1.549199074E-1
7.884187050E-1,3.133884072E-2,8.642166853E-2,-1.428346634E-1,1.698604392E-1
7.934121940E-1,2.046689391E-2,5.839556456E-2,-1.439218521E-1,1.566602541E-1
7.985691740E-1,-3.068134189E-2,7.343107462E-2,-1.568822861E-1,1.759133853E-1
8.035626110E-1,-3.644306958E-2,8.125132322E-2,-1.792325974E-1,2.001354511E-1
8.085561010E-1,4.569584131E-2,8.213406801E-2,-1.301441193E-1,1.605353756E-1
8.135495380E-1,1.324881911E-1,7.623612881E-2,-5.774593353E-2,1.634003089E-1
8.185430280E-1,1.526713669E-1,7.993674278E-2,-4.535961151E-2,1.782019177E-1
8.235365170E-1,1.140334010E-1,3.149396181E-2,-4.023170471E-2,1.249562973E-1
8.287054240E-1,6.471452117E-2,3.829818964E-2,-2.330589294E-2,7.872664877E-2
8.336988610E-1,1.888677478E-2,4.046022892E-2,-6.118774414E-2,7.574747797E-2
8.386923510E-1,2.140101790E-2,1.219415665E-2,-8.453941345E-2,8.805460494E-2
8.436857880E-1,3.845691681E-4,-1.474320889E-3,-2.456665039E-2,2.461385437E-2
8.486792780E-1,-2.020782232E-2,-1.507639885E-2,4.440689087E-2,5.106491792E-2
8.536727670E-1,-4.058603942E-2,-3.119480610E-2,9.619140625E-2,1.089638892E-1
8.588473510E-1,-2.769100666E-2,-4.030472040E-2,1.048049927E-1,1.156518432E-1
8.638407880E-1,1.314714551E-2,-4.976177216E-2,7.775211334E-2,9.324415549E-2
8.688342780E-1,-3.984555602E-3,-4.313254356E-2,6.047916412E-2,7.439100948E-2
8.738277150E-1,-3.102533519E-2,-1.549643278E-2,3.150558472E-2,4.685416439E-2
8.788212050E-1,-1.557905972E-2,6.943881512E-3,9.926795959E-3,1.973488967E-2
8.838146940E-1,-3.205209970E-3,2.640837431E-2,-3.756427765E-2,4.602988768E-2
8.889724030E-1,-1.017092168E-2,6.005370617E-2,-8.940982819E-2,1.081850851E-1
8.939658400E-1,-1.248343289E-2,5.314147472E-2,-1.479530334E-1,1.577021006E-1
8.989593300E-1,-4.571636021E-2,5.594652891E-2,-1.941375732E-1,2.071458352E-1
9.039527670E-1,-4.546627402E-2,5.459719896E-2,-2.233448029E-1,2.343734993E-1
9.089462570E-1,-6.650416553E-2,6.818753481E-2,-2.357234955E-1,2.542398676E-1
9.139397470E-1,-6.088076532E-2,8.228665590E-2,-2.646751404E-1,2.837789479E-1
9.191047990E-1,-5.245368183E-2,4.698991776E-2,-2.316694260E-1,2.421366640E-1
9.240982360E-1,-2.011942863E-2,6.003528833E-2,-1.609687805E-1,1.729739158E-1
9.290917260E-1,-1.384024322E-2,2.314335108E-2,-1.003713608E-1,1.039306360E-1
9.340851630E-1,-9.788930416E-3,-2.531647682E-2,-2.840518951E-2,3.928870001E-2
9.390786530E-1,1.338456571E-2,-8.060109615E-2,2.040863037E-4,8.170510970E-2
9.440721420E-1,1.730915904E-2,-6.679230928E-2,2.146720886E-2,7.226105883E-2
9.492413090E-1,1.640807092E-2,-8.161669970E-2,1.167297363E-2,8.406407541E-2
9.542347470E-1,4.128091037E-2,-9.883859754E-2,6.136608124E-2,1.234462549E-1
9.592282360E-1,2.050182223E-2,-7.594561577E-2,1.035509109E-1,1.300417334E-1
9.642216740E-1,9.246423841E-3,-9.166583419E-2,6.939601898E-2,1.153426589E-1
9.692151630E-1,2.390620112E-2,-7.905822992E-2,9.256362915E-2,1.240553732E-1
9.742086530E-1,4.061296582E-2,-8.117011189E-2,5.142498016E-2,1.043193589E-1
9.793730800E-1,1.210184395E-2,-1.214976609E-1,2.727127075E-2,1.251073876E-1
9.843665170E-1,7.678940892E-3,-8.793133497E-2,1.519775391E-2,8.956482304E-2
9.893600070E-1,3.241270781E-3,-6.879472733E-2,-3.241252899E-2,7.611696512E-2
9.943534440E-1,3.700399399E-2,1.189482212E-2,-7.487487793E-2,8.436248994E-2
9.993469340E-1,7.266671956E-2,3.510063887E-2,-1.122407913E-1,1.382407401E-1
1.004340424E0,3.915393353E-2,2.283650637E-2,-1.469411850E-1,1.537733669E-1
1.009509799E0,2.974784374E-2,3.236907721E-2,-1.694946289E-1,1.751031713E-1
1.014503236E0,8.579611778E-3,3.737312555E-2,-1.871280670E-1,1.910164226E-1
1.019496726E0,4.067853093E-3,3.572213650E-2,-1.856374741E-1,1.890869912E-1
1.024490163E0,-9.811520576E-3,6.088840961E-2,-2.055816650E-1,2.146333743E-1
1.029483653E0,-1.150366664E-2,1.721668243E-2,-1.303567886E-1,1.319910635E-1
1.034477142E0,7.927010953E-2,7.213056087E-3,-3.912830353E-2,8.869499750E-2
1.039641101E0,7.191051543E-2,-5.282938480E-3,6.085300446E-2,9.435104567E-2
1.044640319E0,5.758726597E-2,-1.086890697E-2,1.220102310E-1,1.353548034E-1
1.049639642E0,6.698687375E-2,-5.710321665E-2,1.232910156E-1,1.514882607E-1
1.054638861E0,2.647639811E-2,-9.603318572E-2,1.221961975E-1,1.576555838E-1
1.059638028E0,5.503912270E-2,-8.506214619E-2,9.975242615E-2,1.421809420E-1
1.064637299E0,2.387201786E-2,-1.005715728E-1,1.012697220E-1,1.447068453E-1
1.069792455E0,-2.341493964E-3,-1.209525764E-1,1.051635742E-1,1.602946839E-1
1.074791674E0,1.467181742E-2,-1.058429778E-1,1.137895584E-1,1.560963221E-1
1.079790944E0,5.312682688E-2,-6.498548388E-2,9.622287750E-2,1.276887427E-1
1.084790163E0,9.400449693E-2,-5.313223600E-2,7.642841339E-2,1.322920342E-1
1.089789382E0,7.056303322E-2,-3.172308207E-2,8.529186249E-2,1.151529305E-1
1.094788653E0,6.894917786E-2,-1.054161787E-2,8.695316315E-2,1.114718234E-1
1.099912507E0,5.355601013E-2,-4.197001457E-2,9.810256958E-2,1.193894572E-1
1.104911726E0,1.955600083E-2,-4.947018623E-2,1.067810059E-1,1.192976098E-1
1.109910997E0,-3.781546652E-2,-4.038113356E-2,6.550598145E-2,8.574193292E-2
1.114910215E0,-9.482701868E-2,-1.452654600E-2,2.456665039E-2,9.902880551E-2
1.119909434E0,-1.135675386E-1,2.309596539E-2,-4.691600800E-2,1.250284817E-1
1.124908705E0,-1.372797191E-1,1.785761118E-2,-7.029628754E-2,1.552616617E-1
1.130047819E0,-1.969922036E-1,-8.557736874E-3,-1.006040573E-1,2.213602030E-1
1.135047038E0,-2.092618197E-1,-4.181557894E-2,-6.888675690E-2,2.242419165E-1
1.140046309E0,-2.029566020E-1,-2.490472794E-2,-1.129150391E-2,2.047904437E-1
1.145045528E0,-1.639660448E-1,-4.867297411E-2,-8.794784546E-3,1.712637454E-1
1.150044747E0,-1.116731614E-1,-2.483367920E-2,-2.055358887E-2,1.162327691E-1
1.155044017E0,-2.696585655E-2,-1.792716980E-2,-1.794624329E-2,3.702172990E-2
1.160178288E0,-9.617269039E-3,-3.516888618E-2,2.979755402E-2,4.708754235E-2
1.165177507E0,5.268006027E-2,-4.047673941E-2,1.776027679E-2,6.876759858E-2
1.170176778E0,6.458988786E-2,3.243929148E-2,1.296329498E-2,7.343165708E-2
1.175175997E0,3.855894506E-2,4.550975561E-2,-1.318454742E-2,6.108815262E-2
1.180175215E0,2.244770527E-2,5.398088694E-2,-9.377098083E-2,1.105026356E-1
1.185174486E0,-1.465372741E-2,4.616713524E-2,-1.238307953E-1,1.329669206E-1
1.190310528E0,-1.073773205E-2,6.988251209E-2,-1.014175415E-1,1.236300211E-1
1.195309747E0,1.500983536E-2,3.209418058E-2,-1.984024048E-2,4.060747132E-2
1.200309017E0,4.591676593E-2,4.121780396E-3,8.954906464E-2,1.007192804E-1
1.205308236E0,6.286606193E-2,3.097403049E-2,1.386289597E-1,1.553367978E-1
1.210307455E0,5.875025690E-2,1.226413250E-2,1.706743240E-1,1.809191160E-1
1.215306726E0,4.562284052E-2,-1.837074757E-2,1.644449234E-1,1.716422465E-1
1.220444538E0,4.242374003E-2,-2.757573128E-2,1.321420670E-1,1.414981291E-1
1.225443757E0,2.246430516E-2,1.297271252E-2,1.357564926E-1,1.382127402E-1
1.230443028E0,3.095905483E-2,-1.115876436E-2,1.084766388E-1,1.133585562E-1
1.235442247E0,5.769774318E-3,7.409751415E-3,6.481742859E-2,6.549422693E-2
1.240441465E0,-1.021234691E-2,2.793592215E-2,2.392482758E-2,3.817204671E-2
1.245440736E0,-1.474931836E-2,4.586273432E-2,-3.799247742E-2,6.135438967E-2
1.250582299E0,3.775477409E-3,5.411052704E-2,-6.611728668E-2,8.552016700E-2
1.255581517E0,7.450163364E-3,7.868194580E-2,-1.129894257E-1,1.378875043E-1
1.260580788E0,8.308231831E-3,9.127342701E-2,-1.523408890E-1,1.777852965E-1
1.265580007E0,1.826331019E-2,8.506029844E-2,-1.866235733E-1,2.059057090E-1
1.270579226E0,5.664213002E-2,9.604460001E-2,-1.660127640E-1,1.999828340E-1
1.275578549E0,9.975624084E-2,1.000714302E-1,-1.645994186E-1,2.169298673E-1
1.280716413E0,1.571121216E-1,1.163090467E-1,-1.347208023E-1,2.374062082E-1
1.285715632E0,1.623897702E-1,9.485203028E-2,-1.098833084E-1,2.178111259E-1
1.290714903E0,1.587379724E-1,3.128010035E-2,-5.203723907E-2,1.699531194E-1
1.295714122E0,1.486674994E-1,6.347358227E-3,7.680892944E-3,1.490010418E-1
1.300713340E0,1.392975897E-1,-1.644313335E-3,7.163238525E-2,1.566452070E-1
1.305712611E0,1.236023307E-1,-2.160191536E-2,1.112890244E-1,1.677182931E-1
1.310854955E0,1.081948727E-1,-5.829662085E-2,1.339988708E-1,1.818249814E-1
1.315854174E0,7.167723775E-2,-4.958057404E-2,1.565179825E-1,1.791472539E-1
1.320853444E0,4.733592272E-2,-7.465723157E-2,1.574983597E-1,1.806104236E-1
1.325852663E0,5.375763774E-2,-8.815926313E-2,1.490058899E-1,1.812862226E-1
1.330851882E0,6.420840323E-2,-6.385153532E-2,8.835411072E-2,1.265155583E-1
1.335851153E0,-7.792136073E-2,-4.465472698E-2,1.159954071E-2,9.055568698E-2
1.340981726E0,-2.674487233E-2,-3.317677975E-2,5.429458618E-2,6.902093160E-2
1.345980944E0,1.624791324E-2,4.147171974E-3,-1.974391937E-2,2.590397792E-2
1.350980215E0,-6.292983890E-2,1.972407103E-2,-1.026487350E-1,1.220080588E-1
1.355979434E0,-4.213421047E-2,3.031456470E-2,-1.135807037E-1,1.248793049E-1
1.360978653E0,-2.196772397E-2,4.334408045E-2,-2.099399567E-1,2.154903144E-1
1.365977924E0,-4.002618790E-2,5.409508944E-2,-2.152357101E-1,2.255100560E-1
1.371117090E0,-2.946621180E-2,3.416949511E-2,-2.014999390E-1,2.064897998E-1
1.376116309E0,2.443090081E-3,6.946867704E-2,-2.591705322E-1,2.683304503E-1
1.381115580E0,8.323937654E-4,5.995684862E-2,-2.522573471E-1,2.592861079E-1
1.386114799E0,-1.238714159E-2,4.871761799E-2,-2.311878204E-1,2.365896361E-1
1.391114017E0,-3.722222149E-2,2.249538898E-3,-1.628046036E-1,1.670206369E-1
1.396113288E0,-2.344401181E-2,-3.411710262E-2,-3.800010681E-2,5.619258402E-2
1.401253549E0,7.188037038E-3,-4.399931431E-2,5.724811554E-2,7.256000461E-2
1.406252767E0,6.855860353E-3,-1.229969561E-1,1.374635696E-1,1.845846337E-1
1.411252038E0,-9.862363338E-3,-1.470529139E-1,2.170257568E-1,2.623394839E-1
1.416251257E0,-2.867992222E-2,-1.620184481E-1,2.531986237E-1,3.019636708E-1
1.421250476E0,-4.016830027E-2,-1.941568255E-1,2.653512955E-1,3.312426230E-1
1.426249747E0,-5.648179352E-2,-1.528963447E-1,2.441787720E-1,2.935826253E-1
1.431382924E0,-5.398298800E-2,-1.292084157E-1,2.018451691E-1,2.456632858E-1
1.436382142E0,-5.419050157E-2,-1.273694038E-1,1.218776703E-1,1.844281486E-1
1.441381413E0,-4.034690559E-2,-6.404131651E-2,9.010791779E-2,1.176800742E-1
1.446380632E0,-1.974762976E-2,-1.074439287E-2,-1.265621185E-2,2.579904180E-2
1.451379851E0,2.407950163E-2,5.408722162E-2,-6.942653656E-2,9.124304861E-2
1.456379122E0,3.415292501E-2,6.419682503E-2,-1.209955215E-1,1.411650483E-1
1.461517038E0,2.965107560E-2,1.196322441E-1,-1.745204926E-1,2.136550080E-1
1.466516257E0,2.999383211E-2,1.417355537E-1,-2.347488403E-1,2.758543369E-1
1.471515528E0,-1.721915603E-2,1.547687650E-1,-2.351217270E-1,2.820143550E-1
1.476514747E0,-4.270400107E-2,1.420246363E-1,-2.640247345E-1,3.028261703E-1
1.481513965E0,-4.431474209E-2,1.443071365E-1,-2.475881577E-1,2.899797266E-1
1.486513236E0,-6.522564590E-2,8.981543779E-2,-2.194185257E-1,2.458977169E-1
1.491658288E0,-3.160019219E-2,5.281603336E-2,-1.083555222E-1,1.246155075E-1
1.496657559E0,3.725327551E-2,1.364386082E-2,-1.958751678E-2,4.424513858E-2
1.501656830E0,2.254694700E-2,-3.258800507E-2,5.182361603E-2,6.523825620E-2
1.506656049E0,1.039615273E-2,-2.875751257E-2,1.012716293E-1,1.057876053E-1
1.511655215E0,-8.840948343E-3,-6.559717655E-2,1.123161316E-1,1.303689586E-1
1.516654538E0,7.856786251E-4,-7.625287771E-2,1.019001007E-1,1.272743068E-1
1.521831674E0,5.311885476E-2,-6.093358994E-2,1.058378220E-1,1.331771740E-1
1.526830892E0,6.496259570E-2,-4.363667965E-2,8.599376678E-2,1.162722090E-1
1.531830163E0,5.068874359E-2,-3.103280067E-2,1.114358902E-1,1.262946597E-1
1.536829382E0,4.872408509E-2,-5.184465647E-2,1.057806015E-1,1.274811379E-1
1.541828601E0,3.525337577E-2,-5.827867985E-2,5.978012085E-2,9.062487449E-2
1.546827872E0,7.214257121E-2,-2.654725313E-2,1.210479736E-1,1.433942787E-1
1.551939382E0,3.786498308E-2,-3.535217047E-2,8.914089203E-2,1.031001044E-1
1.556943288E0,6.837716699E-2,-2.255594730E-2,9.549140930E-2,1.195943852E-1
1.561947194E0,1.177576184E-1,-1.942723989E-2,1.112899780E-1,1.631861929E-1
1.566951101E0,1.077118218E-1,-2.846652269E-2,1.863508224E-1,2.171147358E-1
1.571954955E0,4.579824209E-2,-3.304141760E-2,1.966581345E-1,2.046060510E-1
1.576958913E0,-3.476466238E-2,-3.778207302E-2,1.094989777E-1,1.209383847E-1
1.582068392E0,-7.923106849E-2,-3.303521872E-2,1.357173920E-2,8.690845756E-2
1.587072299E0,-5.925290287E-2,-4.252612591E-3,-7.928848267E-3,5.993211031E-2
1.592076205E0,-1.568290591E-2,5.439698696E-3,1.587390900E-2,2.296790906E-2
1.597080111E0,-2.948889136E-2,1.747846603E-2,5.135345459E-2,6.174357284E-2
1.602083965E0,-2.890229225E-3,3.406029940E-2,7.942104340E-2,8.646478794E-2
1.607087924E0,4.502779245E-2,2.189135551E-2,8.587455750E-2,9.940409028E-2
1.612200580E0,3.070029616E-2,2.882075310E-2,1.184091568E-1,1.256736743E-1
1.617204486E0,-5.473741889E-2,3.791719675E-2,6.753635406E-2,9.484227937E-2
1.622208392E0,-1.087969691E-1,-7.850468159E-3,4.323291779E-2,1.173349714E-1
1.627212299E0,-1.220308095E-1,1.353204250E-3,4.289054871E-2,1.293558998E-1
1.632216153E0,-1.258223057E-1,-3.955429792E-2,1.019535065E-1,1.667042668E-1
1.637220111E0,-1.177194118E-1,-5.899298191E-2,1.035261154E-1,1.674983236E-1
1.642333132E0,-1.312891543E-1,-7.163000107E-2,1.027441025E-1,1.814498545E-1
1.647337038E0,-9.502339363E-2,-2.267479897E-2,9.486103058E-2,1.361697726E-1
1.652340944E0,-6.397232413E-2,-7.537662983E-3,3.479576111E-2,7.321215479E-2
1.657344851E0,-4.057149589E-2,7.268965244E-3,-3.187656403E-2,5.210565678E-2
1.662348757E0,-7.236240804E-2,3.155660629E-2,-1.003656387E-1,1.276925955E-1
1.667352663E0,1.950544119E-2,6.539326906E-2,-1.112794876E-1,1.305368386E-1
1.672474278E0,-1.057702303E-2,1.109487414E-1,-1.624927521E-1,1.970415974E-1
1.677478184E0,-1.233251542E-1,8.763438463E-2,-1.848020554E-1,2.388319047E-1
1.682482090E0,2.628818154E-2,9.343063831E-2,-1.950759888E-1,2.178875721E-1
1.687485997E0,9.647518396E-2,8.321940899E-2,-1.649246216E-1,2.084060027E-1
1.692489903E0,6.920674443E-2,8.538061380E-2,-1.018056870E-1,1.498126182E-1
1.697493809E0,1.115885973E-1,2.817982435E-2,1.303100586E-2,1.158271327E-1
1.702599122E0,1.043712497E-1,9.420812130E-3,6.750774384E-2,1.246571496E-1
1.707603028E0,5.253073573E-2,-1.394397020E-2,1.120176315E-1,1.245064748E-1
1.712606934E0,3.469014168E-2,-6.345176697E-2,1.134004593E-1,1.344960848E-1
1.717610840E0,-6.610929966E-3,-9.131798148E-2,1.005229950E-1,1.359689327E-1
1.722614747E0,-4.521048069E-2,-7.892152667E-2,1.257839203E-1,1.552230316E-1
1.727618601E0,-1.702794433E-2,-5.490446091E-2,1.152114868E-1,1.287561160E-1
1.732729694E0,-2.488242090E-2,-2.877622843E-2,5.247497559E-2,6.481380451E-2
1.737793601E0,-1.409372687E-2,-2.916693687E-3,4.528999329E-3,1.508814350E-2
1.742820840E0,-1.558928192E-2,1.560306549E-2,-4.063510895E-2,4.623519701E-2
1.747844017E0,-4.831551015E-2,3.391563892E-2,-5.452728271E-2,8.036095846E-2
1.752838861E0,-6.687654555E-2,4.040640593E-2,-7.543277740E-2,1.086059570E-1
1.757842715E0,-8.104299009E-2,3.026264906E-2,-8.665084839E-2,1.224424914E-1
1.762859486E0,-7.877805829E-2,1.303553581E-3,-7.164382935E-2,1.064918776E-1
1.767863392E0,-7.674299181E-2,3.471016884E-3,-6.863307953E-2,1.030147288E-1
1.772867299E0,-7.717047632E-2,-2.752548456E-2,-2.526760101E-2,8.574022613E-2
1.777871205E0,-3.731675446E-2,-2.490144968E-2,-4.165744781E-2,6.122062821E-2
1.782875059E0,2.414882183E-3,-1.047462225E-2,-4.603290558E-2,4.727132073E-2
1.787879017E0,5.639120936E-2,-2.003228664E-2,-1.949310303E-2,6.293839899E-2
1.793010892E0,6.028348207E-2,-2.460521460E-2,2.819061279E-2,7.095227583E-2
1.798014851E0,2.426770329E-2,-6.259644032E-2,3.033828735E-2,7.367256913E-2
1.803018757E0,-6.447434425E-3,-5.513167381E-2,5.621814728E-2,7.900348696E-2
1.808022611E0,6.102532148E-3,-5.511027575E-2,6.526088715E-2,8.563507916E-2
1.813026517E0,-2.588570118E-3,-8.839151263E-2,6.709861755E-2,1.110044354E-1
1.818030424E0,-4.037946463E-3,-1.001667976E-1,9.505939484E-2,1.381520210E-1
1.823145215E0,6.413131952E-3,-9.554243088E-2,1.061773300E-1,1.429794033E-1
1.828149122E0,7.103055716E-3,-8.887216449E-2,1.409807205E-1,1.668061107E-1
1.833153080E0,2.917015553E-2,-9.925007820E-2,1.636371613E-1,1.935938959E-1
1.838156934E0,3.411406279E-2,-6.476885080E-2,1.409997940E-1,1.588701206E-1
1.843160840E0,1.743602753E-2,-7.081210613E-3,5.918312073E-2,6.210314307E-2
1.848164747E0,-6.543502212E-3,7.056713104E-3,1.133346558E-2,1.486815601E-2
1.853275892E0,-4.346489906E-3,4.255789518E-2,-1.948928833E-2,4.700956048E-2
1.858279747E0,-2.138064802E-2,3.789907694E-2,-8.571434021E-2,9.612710471E-2
1.863283705E0,-5.313515663E-3,9.044200182E-2,-1.347599030E-1,1.623829443E-1
1.868287559E0,-8.530393243E-3,9.782201052E-2,-1.810426712E-1,2.059571852E-1
1.873291465E0,-4.542082548E-3,1.080337167E-1,-2.079658508E-1,2.343964794E-1
1.878295372E0,1.832336187E-2,1.282275915E-1,-2.251958847E-1,2.597907760E-1
1.883414382E0,5.540519953E-2,1.392136812E-1,-2.280607224E-1,2.728770387E-1
1.888418340E0,5.440652370E-2,1.314563155E-1,-1.857938766E-1,2.340089684E-1
1.893422247E0,5.373916030E-2,9.809237719E-2,-1.177854538E-1,1.624297539E-1
1.898426101E0,5.106690526E-2,1.150979996E-1,-1.240072250E-1,1.767290870E-1
1.903430007E0,2.734398842E-2,1.084663868E-1,-9.694480896E-2,1.480234669E-1
1.908433913E0,3.279986978E-2,7.110708952E-2,-9.625720978E-2,1.240866636E-1
1.913553913E0,3.753602505E-4,6.761991978E-2,-1.027259827E-1,1.229846412E-1
1.918557872E0,-4.115757346E-2,4.754531384E-2,-5.925655365E-2,8.640510327E-2
1.923561726E0,-5.853742361E-2,4.912108183E-2,-9.030342102E-3,7.694840948E-2
1.928565632E0,-3.068897128E-2,3.395164013E-2,1.465511322E-2,4.805516798E-2
1.933569538E0,-1.742291451E-2,2.102321386E-2,4.053688049E-2,4.887506676E-2
1.938651830E0,-1.629114151E-2,-3.711450100E-2,7.809638977E-2,8.798825814E-2
1.943655684E0,-2.504797280E-2,-7.256686687E-3,9.637165070E-2,9.983764571E-2
1.948700319E0,-3.156287968E-2,-3.511959314E-2,9.077167511E-2,1.023186112E-1
1.953704174E0,-4.292978346E-2,-3.471511602E-2,1.066303253E-1,1.200755257E-1
1.958708080E0,-5.667783320E-2,-4.639977217E-2,1.057434082E-1,1.286350808E-1
1.963711986E0,-4.676583409E-2,-6.304693222E-2,1.001377106E-1,1.272380445E-1
1.968715892E0,-5.836486816E-2,-4.666119814E-2,9.935283661E-2,1.243169795E-1
1.973719799E0,-5.329021811E-2,-2.106499672E-2,4.394721985E-2,7.221453847E-2
1.978723653E0,-7.873669267E-3,-5.029261112E-3,8.707046509E-4,9.383296950E-3
1.983857142E0,-1.737743616E-2,3.461110592E-2,-1.571655273E-2,4.179609994E-2
1.988861049E0,4.094183445E-3,5.508655310E-2,-9.869003296E-2,1.130973619E-1
1.993864903E0,4.274994135E-3,6.635069847E-2,-1.358728409E-1,1.512683696E-1
1.998868809E0,-3.825993836E-2,6.383913755E-2,-1.514015198E-1,1.687058937E-1
2.003872715E0,-3.758986294E-2,6.429797411E-2,-1.335802078E-1,1.529408356E-1
2.008876622E0,-2.251712978E-2,6.743854284E-2,-1.373100281E-1,1.546254248E-1
2.013991882E0,-2.170319855E-2,7.316732407E-2,-1.006412506E-1,1.263057697E-1
2.018995788E0,5.275949836E-3,6.017094851E-2,-9.993171692E-2,1.167678326E-1
2.023999694E0,5.950927734E-3,5.224055052E-2,-8.261299133E-2,9.792545632E-2
2.029003549E0,1.622876525E-2,1.364791393E-2,-4.169464111E-2,4.677693314E-2
2.034007455E0,-4.710286856E-3,-1.982426643E-2,2.501773834E-2,3.226570275E-2
2.039011361E0,4.067867994E-4,-4.377758503E-2,6.981754303E-2,8.240832325E-2
2.044127611E0,7.854551077E-3,-5.154013634E-2,1.142807007E-1,1.256111387E-1
2.049131569E0,1.735322177E-2,-6.897813082E-2,1.726484299E-1,1.867259949E-1
2.054135476E0,1.478849351E-2,-1.009878218E-1,1.735467911E-1,2.013348663E-1
2.059139330E0,1.233933866E-2,-1.237416565E-1,1.887187958E-1,2.260067272E-1
2.064143236E0,-1.121374965E-2,-1.726940274E-1,1.918945312E-1,2.584037276E-1
2.069147142E0,-2.244941890E-2,-1.481074989E-1,2.069454193E-1,2.554725312E-1
2.074262247E0,-3.100138903E-2,-1.286453009E-1,1.862430573E-1,2.284670128E-1
2.079266205E0,-2.989897132E-2,-1.024062634E-1,1.087093353E-1,1.523112302E-1
2.084270111E0,-4.297354817E-2,-6.692796946E-2,2.944660187E-2,8.481262465E-2
2.089273965E0,-4.402184486E-2,-2.931302786E-2,-4.024505615E-3,5.304123936E-2
2.094277872E0,-2.620629966E-2,-2.031362057E-2,-3.960037231E-2,5.164884132E-2
2.099281778E0,-2.992214262E-2,-1.575469971E-3,-2.025985718E-2,3.617013323E-2
2.104387715E0,-2.900078893E-2,2.444225550E-2,-3.197669983E-2,4.960825480E-2
2.109391622E0,-1.874151826E-2,3.356021643E-2,-1.270771027E-2,4.048479385E-2
2.114395528E0,-3.950150311E-2,2.137750387E-2,-2.448940277E-2,5.115757293E-2
2.119399382E0,-6.272271276E-2,3.553068638E-2,-7.655620575E-2,1.051542724E-1
2.124403288E0,-4.339548945E-2,2.828586102E-2,-9.255218506E-2,1.060620828E-1
2.129407194E0,-3.399011493E-2,6.401622295E-2,-4.427814484E-2,8.493502707E-2
2.134531413E0,-4.378435016E-2,5.912566185E-2,-7.005023956E-2,1.015871511E-1
2.139535372E0,-3.680296242E-2,4.713994265E-2,-6.710147858E-2,8.988459636E-2
2.144539278E0,-1.092408597E-2,3.303247690E-2,-5.468273163E-2,6.481266329E-2
2.149543132E0,-8.964493871E-3,1.434326172E-2,-2.099227905E-2,2.695861805E-2
2.154547038E0,-2.820329368E-2,2.578079700E-3,5.307197571E-3,2.881386152E-2
2.159550944E0,-4.269585013E-3,-1.874393225E-2,2.901554108E-2,3.480611981E-2
2.164663861E0,6.581544876E-4,-2.335834503E-2,5.490207672E-2,5.966811107E-2
2.169667767E0,1.782418787E-2,-2.101045847E-2,6.157112122E-2,6.745475525E-2
2.174671674E0,2.078874409E-2,-5.193483829E-2,6.415367126E-3,5.630769259E-2
2.179675580E0,1.660501957E-2,-2.558988333E-2,1.823425293E-2,3.553951018E-2
2.184679486E0,1.963149011E-2,-1.366478205E-2,2.282428741E-2,3.306160565E-2
2.189683392E0,2.273924649E-2,1.484012604E-2,-3.511428833E-3,2.737942300E-2
2.194798288E0,5.661408603E-2,2.404886484E-2,1.259803772E-3,6.152308301E-2
2.199802247E0,4.727423191E-2,3.556013107E-2,2.262401581E-2,6.333420889E-2
2.204806101E0,1.163174212E-2,4.464799166E-2,1.053810120E-3,4.615030985E-2
2.209810007E0,1.889680326E-2,1.342868805E-2,-2.984428406E-2,3.779021205E-2
2.214813913E0,-1.442888379E-2,1.107573509E-2,-8.226394653E-3,1.996342066E-2
2.219817819E0,-9.720802307E-3,4.432129860E-2,1.559638977E-2,4.798040101E-2
2.224928705E0,2.566803992E-2,1.785027981E-2,2.022361755E-2,3.723540613E-2
2.229932611E0,5.835367739E-2,2.480018139E-2,6.044960022E-2,8.760339508E-2
2.234936517E0,8.148688078E-2,4.118824005E-2,5.044841766E-2,1.043150310E-1
2.239940372E0,7.381005585E-2,2.417975664E-2,5.477809906E-2,9.504328021E-2
2.244944278E0,4.745768011E-2,4.883289337E-3,6.619548798E-2,8.159608167E-2
2.249948184E0,4.286299646E-2,5.137920380E-5,5.850696564E-2,7.252795415E-2
2.255056934E0,1.714968681E-2,6.270408630E-5,6.037521362E-2,6.276370057E-2
2.260060840E0,1.325808465E-2,9.581983089E-3,5.747318268E-2,5.975581926E-2
2.265064747E0,-2.851222456E-2,6.991446018E-3,2.134323120E-2,3.629546507E-2
2.270068601E0,-2.723261714E-2,2.807688713E-2,3.303241730E-2,5.119636334E-2
2.275072507E0,-2.360448241E-3,8.497655392E-3,1.850318909E-2,2.049755765E-2
2.280076413E0,2.695509791E-2,-1.520991325E-3,-6.475448608E-4,2.700574073E-2
2.285197351E0,3.687846661E-2,5.057513714E-3,2.788162231E-2,4.650789833E-2
2.290201257E0,5.843295157E-2,1.360493898E-2,3.956985474E-2,7.186986571E-2
2.295205163E0,2.492091060E-2,5.533498526E-2,-2.722644806E-2,6.651535050E-2
2.300209017E0,1.031950116E-3,5.648964643E-2,-7.209110260E-2,9.159296998E-2
2.305212924E0,-1.430243254E-3,8.634692430E-2,-1.355943680E-1,1.607596640E-1
2.310216830E0,8.760690689E-4,9.493899345E-2,-1.700839996E-1,1.947889805E-1
2.315333705E0,7.974788547E-3,1.062502265E-1,-1.781826019E-1,2.076096036E-1
2.320337611E0,1.516383886E-2,9.174752235E-2,-1.411056519E-1,1.689921739E-1
2.325341517E0,2.017599344E-2,8.495771885E-2,-1.518821716E-1,1.751944028E-1
2.330345372E0,2.773797512E-2,1.001176834E-1,-9.608936310E-2,1.415136442E-1
2.335349278E0,4.019786417E-2,7.750338316E-2,-4.078865051E-2,9.636574441E-2
2.340353184E0,3.116787970E-2,3.612732887E-2,4.017925262E-2,6.237782425E-2
2.345459434E0,5.538761616E-3,-3.098964691E-2,7.771205902E-2,8.384628920E-2
2.350463340E0,-1.514700055E-2,-5.281305313E-2,1.743450165E-1,1.827972510E-1
2.355467194E0,2.124613523E-2,-7.739773393E-2,2.084455490E-1,2.233637266E-1
2.360471101E0,2.625332773E-2,-9.300172329E-2,2.209291458E-1,2.411394725E-1
2.365475007E0,9.735554457E-3,-8.508250117E-2,2.072019577E-1,2.242018383E-1
2.370478913E0,2.690255642E-4,-6.591844559E-2,1.817493439E-1,1.933342645E-1
2.375601569E0,3.337271512E-2,-4.022204876E-2,1.256599426E-1,1.360954536E-1
2.380605476E0,5.407358706E-2,-2.907621861E-2,7.242298126E-2,9.494454972E-2
2.385609382E0,8.158539236E-2,-1.554608345E-3,3.151893616E-2,8.747591891E-2
2.390613288E0,8.057463169E-2,3.275835514E-2,4.606246948E-4,8.698041894E-2
2.395617194E0,5.333788693E-2,5.981409550E-2,-2.559471130E-2,8.412933762E-2
2.400621049E0,5.018089712E-2,6.769418716E-2,-7.044219971E-2,1.098304553E-1
2.405727819E0,2.106150985E-2,3.536933661E-2,-1.363134384E-1,1.423935766E-1
2.410731726E0,-1.718279719E-2,6.314384937E-2,-1.399011612E-1,1.544497625E-1
2.415735632E0,-3.127455711E-4,1.725101471E-2,-1.173439026E-1,1.186055934E-1
2.420739538E0,9.287029505E-3,1.951128244E-2,-1.282482147E-1,1.300559250E-1
2.425743444E0,-4.912286997E-3,2.170705795E-2,-8.442115784E-2,8.730554862E-2
2.430747351E0,3.796787560E-2,7.255733013E-3,-6.946563721E-2,7.949641496E-2
2.435867455E0,5.674661696E-2,2.163892984E-2,-9.265613556E-2,1.107861962E-1
2.440871361E0,7.985615730E-2,2.174943686E-2,-6.814193726E-2,1.072071242E-1
2.445875267E0,7.660286129E-2,2.169907093E-2,-2.719211578E-2,8.413239089E-2
2.450879174E0,5.898673832E-2,1.208788157E-2,-2.458572388E-2,6.503852702E-2
2.455883080E0,5.070924759E-2,4.777193069E-3,-3.148746490E-2,5.988079668E-2
2.460886986E0,2.117882669E-2,-7.277786732E-3,-4.545497894E-2,5.067212242E-2
2.465994538E0,8.470609784E-3,-9.949147701E-3,-8.304786682E-2,8.406952452E-2
2.471002142E0,9.979099035E-3,-2.937531471E-2,-7.518005371E-2,8.132977320E-2
2.476009747E0,-3.862437606E-2,-2.488172054E-2,-6.262207031E-2,7.766895218E-2
2.481017351E0,-1.560218632E-2,-1.475512981E-3,-9.054851532E-2,9.189471684E-2
2.486024955E0,3.584438562E-2,-9.252250195E-3,-1.277389526E-1,1.329949779E-1
2.491032559E0,6.068590283E-2,5.930924416E-2,-1.408805847E-1,1.644618630E-1
2.496128601E0,2.122567594E-2,7.275623083E-2,-1.871757507E-1,2.019375154E-1
2.501136205E0,-2.015811205E-2,7.933074236E-2,-2.378606796E-1,2.515500329E-1
2.506143809E0,-3.015659750E-2,7.469540834E-2,-2.644147873E-1,2.764127424E-1
2.511151413E0,-3.769920766E-2,8.481836319E-2,-2.361392975E-1,2.537265315E-1
2.516159017E0,-7.368840277E-2,5.023950338E-2,-1.962518692E-1,2.155661953E-1
2.521166622E0,-9.265173972E-2,9.134650230E-3,-1.472167969E-1,1.741854529E-1
2.526258601E0,-9.696333110E-2,-2.818644047E-3,-7.010555267E-2,1.196855081E-1
2.531266205E0,-7.495370507E-2,-2.865236998E-2,-1.028537750E-2,8.089997033E-2
2.536273809E0,-5.772665143E-2,-4.703956842E-2,3.952503204E-2,8.430489571E-2
2.541281413E0,-4.756307602E-2,-7.276168466E-2,1.530761719E-1,1.760364262E-1
2.546289017E0,-4.921285808E-2,-4.869043827E-2,2.063074112E-1,2.176129870E-1
2.551296622E0,-1.284925640E-2,-7.986649871E-2,2.329893112E-1,2.466328854E-1
2.556394226E0,-1.235407591E-2,-8.494108915E-2,2.475862503E-1,2.620430559E-1
2.561401830E0,-1.186081767E-2,-8.788433671E-2,2.406988144E-1,2.565156036E-1
2.566409434E0,-1.142333448E-2,-4.122692347E-2,2.125072479E-1,2.167705751E-1
2.571417038E0,-2.048860490E-2,-4.024976492E-2,1.893129349E-1,1.946258303E-1
2.576424642E0,-3.898639977E-2,-6.308534741E-2,1.948194504E-1,2.084569948E-1
2.581432247E0,-5.975726247E-2,-4.798060656E-2,1.931705475E-1,2.078170576E-1
2.586520163E0,-9.952454269E-2,-7.828450203E-2,1.867961884E-1,2.256688145E-1
2.591527767E0,-9.140270948E-2,-6.816026568E-2,1.567316055E-1,1.938171130E-1
2.596535372E0,-7.855749130E-2,-6.302195787E-2,1.934394836E-1,2.180868645E-1
2.601542976E0,-6.106525660E-2,-8.189031482E-2,2.084732056E-1,2.321552641E-1
2.606550580E0,-2.465966344E-2,-6.770774722E-2,2.043972015E-1,2.167271419E-1
2.611558184E0,-9.934335947E-3,-4.212969542E-2,2.288827896E-1,2.329397640E-1
2.616654434E0,-1.200544834E-2,-3.621220589E-2,1.866750717E-1,1.905335588E-1
2.621662038E0,-3.068597615E-2,-4.715561867E-2,1.282005310E-1,1.400023487E-1
2.626669642E0,-4.906128347E-2,-1.044452190E-3,4.170608521E-2,6.440107110E-2
2.631677247E0,-9.346921742E-2,-2.723515034E-3,-3.219318390E-2,9.889546617E-2
2.636684851E0,-8.773349226E-2,3.599917889E-2,-8.171844482E-2,1.251839078E-1
2.641692455E0,-6.537407637E-2,3.422605991E-2,-1.189670563E-1,1.399941196E-1
2.646802663E0,-5.512659252E-2,4.954230785E-2,-1.416759491E-1,1.598920136E-1
2.651810267E0,-6.407050788E-2,8.654356003E-2,-1.452140808E-1,1.807814897E-1
2.656817872E0,-2.056849003E-2,1.140428185E-1,-1.606206894E-1,1.980601755E-1
2.661825476E0,8.372545242E-3,1.155433655E-1,-1.474151611E-1,1.874875957E-1
2.666833080E0,2.540786564E-2,1.125888228E-1,-9.870910645E-2,1.518726123E-1
2.671840684E0,-1.460511982E-2,8.610939980E-2,-3.854560852E-2,9.546675963E-2
2.676948809E0,-2.814514935E-2,6.699019670E-2,1.636409760E-2,7.448234406E-2
2.681956413E0,-3.896164894E-2,3.599011898E-2,6.844520569E-2,8.659125206E-2
2.686964017E0,-4.958136380E-2,2.662706375E-2,4.407215118E-2,7.148193247E-2
2.691971622E0,-5.289140344E-2,2.674400806E-2,3.416061401E-2,6.840826028E-2
2.696979226E0,-5.880835652E-2,1.957798004E-2,4.572486877E-2,7.702261826E-2
2.701986830E0,-3.163169324E-2,2.816319466E-3,4.770565033E-2,5.730902849E-2
2.707059434E0,-1.686061919E-2,1.681202650E-2,6.156921387E-2,6.601282308E-2
2.712067038E0,4.605993629E-3,1.623135805E-2,6.345939636E-2,6.566404761E-2
2.717074642E0,1.867260039E-2,3.672111034E-2,9.148406982E-2,1.003316549E-1
2.722082247E0,4.430459440E-2,3.312468529E-2,8.603286743E-2,1.022829220E-1
2.727089851E0,8.019939065E-3,3.394323587E-2,4.738807678E-2,5.883954882E-2
2.732097455E0,-6.615921855E-3,2.756947279E-2,-3.606414795E-2,4.587449203E-2
2.737189955E0,-4.969735444E-2,4.756903648E-2,-9.507560730E-2,1.173542133E-1
2.742197559E0,-7.801707089E-2,4.382580519E-2,-8.709430695E-2,1.248710649E-1
2.747205163E0,-7.770408690E-2,4.734641314E-2,-1.053142548E-1,1.391786629E-1
2.752212767E0,-7.254828513E-2,5.574762821E-2,-1.305208206E-1,1.593949069E-1
2.757220372E0,-3.165008128E-2,6.439077854E-2,-1.246566772E-1,1.438304112E-1
2.762227976E0,-9.987235069E-3,5.896544456E-2,-9.985446930E-2,1.163940873E-1
2.767336153E0,-7.307052612E-3,4.656499624E-2,-8.952331543E-2,1.011736917E-1
2.772343757E0,-2.102349699E-2,4.635334015E-2,-5.078887939E-2,7.190361492E-2
2.777351361E0,-3.922450542E-2,1.996183395E-2,-2.188110352E-2,4.915098505E-2
2.782358965E0,-5.961006880E-2,1.987391710E-2,1.866722107E-2,6.554996587E-2
2.787366569E0,-6.785382330E-2,-1.641571522E-3,1.374244690E-2,6.925092736E-2
2.792374174E0,-7.360465825E-2,-8.671641350E-3,-1.014995575E-2,7.480551237E-2
2.797457976E0,-3.906562924E-2,7.753968239E-4,4.180908203E-3,3.929636907E-2
2.802465580E0,-1.918122172E-2,2.197140455E-2,-1.248359680E-2,3.172541684E-2
2.807473184E0,-1.134024560E-2,3.591585159E-2,-3.851604462E-2,5.387054166E-2
2.812480788E0,1.762367785E-2,8.309978247E-2,-5.007839203E-2,9.861041129E-2
2.817488392E0,3.907983005E-2,8.965611458E-2,-6.392669678E-2,1.168420924E-1
2.822495997E0,5.340148509E-2,8.675372601E-2,-7.054233551E-2,1.239118585E-1
2.827598705E0,6.067767739E-3,9.121394157E-2,-9.375000000E-2,1.309422141E-1
2.832606309E0,-3.611955047E-2,6.019848585E-2,-8.589267731E-2,1.109325545E-1
2.837613913E0,-7.547630370E-2,6.275081635E-2,-8.998394012E-2,1.331594790E-1
2.842621517E0,-1.193204522E-1,4.178959131E-2,-1.130599976E-1,1.696063186E-1
2.847629122E0,-1.297032535E-1,1.651281118E-2,-8.131885529E-2,1.539752030E-1
2.852636726E0,-1.309238672E-1,-1.825833321E-2,-1.893901825E-2,1.335406760E-1
2.857742194E0,-1.133490428E-1,-5.039405823E-2,4.055309296E-2,1.305071644E-1
2.862749799E0,-1.055235416E-1,-5.423986912E-2,6.157112122E-2,1.336719275E-1
2.867757403E0,-7.426661253E-2,-6.802147627E-2,6.581783295E-2,1.203097590E-1
2.872765007E0,-3.867436945E-2,-6.769371033E-2,6.054592133E-2,9.871146772E-2
2.877772611E0,-5.816829205E-2,-3.442275524E-2,3.871059418E-2,7.789086198E-2
2.882780215E0,-8.958758414E-2,-2.766245604E-2,4.386901855E-4,9.376214137E-2
2.887856361E0,-9.706554562E-2,9.812891483E-3,-5.413436890E-2,1.115730383E-1
2.892863965E0,-9.289605916E-2,5.178809166E-2,-1.177511215E-1,1.586726532E-1
2.897871569E0,-8.416226506E-2,9.377467632E-2,-1.380977631E-1,1.869437588E-1
2.902879174E0,-5.886919796E-2,1.285942197E-1,-1.321611404E-1,1.935681349E-1
2.907886778E0,1.853926480E-2,2.014901042E-1,-1.619300842E-1,2.591588675E-1
2.912894330E0,6.222237647E-2,2.289977074E-1,-1.700973511E-1,2.919669210E-1
2.917997038E0,6.784696877E-2,2.092445493E-1,-1.425971985E-1,2.621458632E-1
2.923004642E0,6.911209226E-2,2.088431120E-1,-3.457927704E-2,2.226828532E-1
2.928012247E0,-4.056270421E-2,1.585080624E-1,2.026271820E-2,1.648657531E-1
2.933019851E0,-8.706121892E-2,1.393777132E-1,6.514263153E-2,1.767748999E-1
2.938027455E0,-5.932679772E-2,1.011969447E-1,1.225948334E-2,1.179439930E-1
2.943035059E0,-5.013942719E-3,9.617602825E-2,1.451196671E-1,1.741685557E-1
2.948127715E0,-5.393013358E-3,1.120069623E-1,2.032585144E-1,2.321393286E-1
2.953135319E0,-4.137933254E-2,1.319387555E-1,1.540451050E-1,2.070023641E-1
2.958142924E0,-8.919231594E-2,1.631650329E-1,5.300998688E-2,1.933601714E-1
2.963150528E0,-1.083947793E-1,1.893750429E-1,-4.479980469E-2,2.227540293E-1
2.968158132E0,-1.089891642E-1,2.012130022E-1,-9.427833557E-2,2.474948782E-1
2.973165736E0,-1.170511246E-1,2.795660496E-1,-1.267147064E-1,3.285038183E-1
2.978261882E0,-1.017349735E-1,3.149613142E-1,-1.731538773E-1,3.735410278E-1
2.983272403E0,-8.466363698E-2,3.625571728E-1,-2.239856720E-1,4.344942073E-1
2.988282976E0,-9.420437366E-2,3.581084609E-1,-2.126607895E-1,4.270137529E-1
2.993293497E0,-1.205329522E-1,3.472365141E-1,-1.943426132E-1,4.157769121E-1
2.998304017E0,-1.348963976E-1,3.655749559E-1,-1.429548264E-1,4.150640539E-1
3.003314538E0,-1.134000719E-1,3.178131580E-1,-9.678459167E-2,3.510442093E-1
3.008398028E0,-1.037489697E-1,2.686864734E-1,-3.916358948E-2,2.906717331E-1
3.013408549E0,-9.384409338E-2,2.250811458E-1,-3.431320190E-3,2.438852394E-1
3.018419122E0,-1.217693537E-1,1.987774968E-1,6.286144257E-2,2.414370098E-1
3.023429642E0,-1.514764577E-1,9.931069613E-2,1.475849152E-1,2.336429729E-1
3.028440163E0,-1.785229146E-1,3.378033638E-2,2.387380600E-1,3.000123389E-1
3.033450684E0,-2.052546144E-1,-6.502497196E-2,3.244152069E-1,3.893622095E-1
3.038532299E0,-2.247488201E-1,-8.993899822E-2,3.452787399E-1,4.216852662E-1
3.043542819E0,-2.154930383E-1,-1.558930576E-1,3.992757797E-1,4.797510221E-1
3.048553392E0,-2.564368844E-1,-1.675306857E-1,4.124975204E-1,5.137904346E-1
3.053563913E0,-2.805948555E-1,-1.514879763E-1,3.971614838E-1,5.093322335E-1
3.058574434E0,-2.667205036E-1,-1.031436324E-1,2.846088409E-1,4.034608138E-1
3.063584955E0,-2.841766477E-1,-9.620174766E-2,2.205486298E-1,3.723611707E-1
3.068667299E0,-3.019493222E-1,-4.239112139E-2,1.214313507E-1,3.282011172E-1
3.073677819E0,-3.174115121E-1,-8.211374283E-3,7.303905487E-2,3.258100647E-1
3.078688392E0,-3.329254091E-1,1.598107815E-2,-2.006721497E-2,3.339122879E-1
3.083698861E0,-3.533548117E-1,5.418330431E-2,-8.626079559E-2,3.677449908E-1
3.088709434E0,-3.263939321E-1,1.111841798E-1,-1.186456680E-1,3.646528696E-1
3.093719955E0,-3.167626262E-1,1.395694017E-1,-1.745290756E-1,3.876578098E-1
3.098804851E0,-2.932823002E-1,1.869159937E-1,-2.347049713E-1,4.195694458E-1
3.103815372E0,-2.395943403E-1,2.223745584E-1,-2.350053787E-1,4.025958522E-1
3.108825944E0,-2.154849768E-1,2.100282907E-1,-2.495450974E-1,3.909199582E-1
3.113836465E0,-1.683387160E-1,1.741337776E-1,-2.116975784E-1,3.216774169E-1
3.118846986E0,-1.457513571E-1,1.433410645E-1,-1.670322418E-1,2.639884252E-1
3.123857507E0,-1.071308255E-1,1.292254329E-1,-1.512231827E-1,2.259306913E-1
3.128931830E0,-5.707131326E-2,6.738877296E-2,-1.212673187E-1,1.500138131E-1
3.133942351E0,-1.214957237E-2,7.951605320E-2,-1.034240723E-1,1.310227215E-1
3.138952924E0,3.493873775E-2,8.193433285E-2,-1.284818649E-1,1.563379030E-1
3.143963444E0,3.465178609E-2,5.582374334E-2,-1.533393860E-1,1.668232714E-1
3.148973965E0,4.444245994E-2,4.191154242E-2,-1.471223831E-1,1.593006756E-1
3.153984486E0,5.249749124E-2,9.953838587E-2,-1.528587341E-1,1.898148294E-1
3.159066569E0,4.965727031E-2,1.141691208E-1,-1.704607010E-1,2.110859617E-1
3.164077090E0,-2.786266804E-2,1.028270721E-1,-2.069673538E-1,2.327771909E-1
3.169087663E0,-5.378100276E-2,1.276322603E-1,-2.598485947E-1,2.944548901E-1
3.174098184E0,-5.338221788E-3,1.412366033E-1,-4.240093231E-1,4.469453891E-1
3.179108705E0,5.501520634E-2,1.837943792E-1,-3.564186096E-1,4.047731118E-1
3.184119226E0,1.129985005E-1,2.262924910E-1,-3.108024597E-1,4.007182571E-1
3.189202403E0,1.607356966E-2,2.068421245E-1,-3.320922852E-1,3.915703129E-1
3.194212924E0,-7.025524974E-3,1.973391771E-1,-3.912191391E-1,4.382288485E-1
3.199223497E0,-5.954778194E-2,1.718450785E-1,-5.425109863E-1,5.721842707E-1
3.204234017E0,1.369822323E-1,1.683865190E-1,-3.837327957E-1,4.408730092E-1
3.209244538E0,1.695629805E-1,1.504274607E-1,-1.811056137E-1,2.901366378E-1
3.214255059E0,7.291787863E-2,9.908533096E-2,-8.940887451E-2,1.520817763E-1
3.219334694E0,6.222605705E-2,1.229482889E-2,-7.953643799E-3,6.392578074E-2
3.224345215E0,-1.545433700E-2,-5.020523071E-2,1.583099365E-3,5.255385739E-2
3.229355788E0,-9.755195677E-2,-8.894491196E-2,4.909229279E-2,1.408461389E-1
3.234366309E0,-1.360782087E-1,-1.347890794E-1,2.316274643E-1,3.005605713E-1
3.239376830E0,-1.573728025E-1,-1.212145388E-1,2.843799591E-1,3.468877694E-1
3.244387351E0,-7.559205592E-2,-1.271102428E-1,3.319473267E-1,3.634008812E-1
3.249474799E0,-7.864817977E-3,-1.045968533E-1,3.292198181E-1,3.455257526E-1
3.254485319E0,-1.107706130E-2,-1.036987901E-1,3.431262970E-1,3.586248681E-1
3.259495892E0,7.984995842E-3,-7.455629110E-2,3.735399246E-1,3.809914382E-1
3.264506413E0,6.818583608E-2,-2.917659283E-2,3.989362717E-1,4.057717716E-1
3.269516934E0,5.268514156E-2,-2.455538511E-2,3.789653778E-1,3.833972465E-1
3.274527455E0,6.897489727E-2,-1.527452469E-2,3.591451645E-1,3.660274535E-1
3.279603236E0,4.049493372E-2,-1.826715469E-2,3.490018845E-1,3.518179131E-1
3.284613757E0,-1.786172390E-3,-4.058909416E-2,3.508386612E-1,3.531832827E-1
3.289624330E0,-4.579205811E-2,-4.433679581E-2,3.835754395E-1,3.888351602E-1
3.294634851E0,-9.428787231E-2,-4.397404194E-2,3.519458771E-1,3.670011166E-1
3.299645372E0,-1.642892212E-1,-3.968745470E-2,3.253993988E-1,3.666753482E-1
3.304655840E0,-1.819238663E-1,-3.145831823E-2,1.946105957E-1,2.682521256E-1
3.309752559E0,-2.002335936E-1,1.396381855E-2,7.448387146E-2,2.140942020E-1
3.314763080E0,-2.027858198E-1,9.214204550E-2,-8.499431610E-2,2.384036053E-1
3.319773653E0,-2.112108469E-1,1.768487096E-1,-2.882537842E-1,3.987176094E-1
3.324784174E0,-2.042762488E-1,2.612629533E-1,-4.137992859E-1,5.302989398E-1
3.329794694E0,-1.606736928E-1,3.246273994E-1,-4.979524612E-1,6.157561512E-1
3.334805215E0,-1.446363628E-1,3.412434459E-1,-5.672130585E-1,6.775672812E-1
3.339881830E0,-8.916391432E-2,3.658088446E-1,-5.171632767E-1,6.397063147E-1
3.344892351E0,-3.473867476E-2,3.675082326E-1,-4.129524231E-1,5.538941959E-1
3.349902924E0,2.554878592E-3,2.842419744E-1,-2.336273193E-1,3.679425930E-1
3.354913444E0,1.842111349E-2,2.040948868E-1,-1.779460907E-2,2.056956692E-1
3.359923965E0,3.476451337E-2,1.170274615E-1,1.036128998E-1,1.601237994E-1
3.364934486E0,8.473120630E-2,1.231296062E-1,1.812534332E-1,2.349320845E-1
3.370009278E0,1.418637633E-1,1.193678379E-1,1.347322464E-1,2.291872298E-1
3.375019799E0,1.088603735E-1,3.213894367E-2,1.503725052E-1,1.884021840E-1
3.380030372E0,1.002415717E-1,-4.785412550E-2,1.801710129E-1,2.116600668E-1
3.385040892E0,6.337651610E-2,-7.351869345E-2,2.572975159E-1,2.749974414E-1
3.390051413E0,6.484586000E-2,-7.169145346E-2,2.578496933E-1,2.753744984E-1
3.395061934E0,6.871134043E-2,-7.824039459E-2,1.777181625E-1,2.059770690E-1
3.400140163E0,7.946175337E-2,-4.318696260E-2,1.758003235E-2,9.213219592E-2
3.405150684E0,8.752343059E-2,1.458424330E-2,-1.672897339E-1,1.893644796E-1
3.410161257E0,1.191846728E-1,8.064836264E-2,-3.244266510E-1,3.549109698E-1
3.415171778E0,1.171812415E-1,1.552492380E-1,-5.015916824E-1,5.379851161E-1
3.420182299E0,9.853038192E-2,2.224099636E-1,-7.058000565E-1,7.465441365E-1
3.425192819E0,5.184778571E-2,2.562203407E-1,-8.798351288E-1,9.178490670E-1
3.430276830E0,3.892546892E-2,3.335618377E-1,-1.092879295E0,1.143312663E0
3.435287351E0,6.431978941E-2,3.571057916E-1,-1.204489708E0,1.257957487E0
3.440297924E0,9.484639764E-2,4.008947015E-1,-1.179889679E0,1.249740795E0
3.445308444E0,1.257025599E-1,4.410554171E-1,-1.177005768E0,1.263199744E0
3.450318965E0,2.092138827E-1,4.730117321E-1,-1.198049545E0,1.304926534E0
3.455329434E0,2.666113377E-1,4.996606708E-1,-1.235733986E0,1.359331040E0
3.460408028E0,2.675825953E-1,4.997773767E-1,-1.140282631E0,1.273429366E0
3.465418549E0,2.146890759E-1,4.447547197E-1,-1.022045135E0,1.135109871E0
3.470429122E0,9.430798888E-2,3.704973459E-1,-8.693227768E-1,9.496759291E-1
3.475439642E0,-5.184024572E-3,2.816200852E-1,-6.158571243E-1,6.772124808E-1
3.480450163E0,-6.774505973E-2,2.373288274E-1,-4.477396011E-1,5.112583651E-1
3.485460684E0,-1.222472191E-1,1.798849702E-1,-3.214635849E-1,3.881260382E-1
3.490545528E0,-1.407577246E-1,1.046180725E-1,-1.915264130E-1,2.596922121E-1
3.495558444E0,-1.312749237E-1,1.062041521E-1,-6.265258789E-2,1.801048980E-1
3.500571309E0,-1.440025866E-1,1.100653410E-1,1.127023697E-1,2.134313669E-1
3.505584226E0,-1.697120219E-1,7.781779766E-2,2.557964325E-1,3.166853247E-1
3.510597142E0,-1.565330327E-1,2.830326557E-2,3.550643921E-1,3.890686157E-1
3.515610007E0,-9.332540631E-2,5.168205500E-2,4.655370712E-1,4.776038431E-1
3.520684799E0,-4.221467674E-2,1.306098700E-1,5.681180954E-1,5.844648727E-1
3.525697715E0,1.583012938E-2,1.339135766E-1,6.343746185E-1,6.485480673E-1
3.530710580E0,7.640564442E-2,1.595651507E-1,7.026100159E-1,7.245410232E-1
3.535723497E0,1.351839304E-1,1.837309599E-1,7.632865906E-1,7.966418141E-1
3.540736413E0,2.380753756E-1,2.252250910E-1,8.592185974E-1,9.195992737E-1
3.545749278E0,3.332838118E-1,2.911757231E-1,9.283123016E-1,1.028409029E0
3.550818757E0,4.071885049E-1,3.556616902E-1,8.994770050E-1,1.049455382E0
3.555831674E0,4.037624896E-1,4.047951102E-1,8.352375031E-1,1.012178302E0
3.560844538E0,3.522487879E-1,4.318986535E-1,7.643632889E-1,9.459740445E-1
3.565857455E0,3.104023635E-1,5.038878322E-1,6.583747864E-1,8.852739316E-1
3.570870372E0,2.829098403E-1,5.918225050E-1,6.078329086E-1,8.942889354E-1
3.575883236E0,2.003538609E-1,6.792988181E-1,5.077400208E-1,8.714289888E-1
3.580940944E0,2.077656686E-1,8.067523837E-1,3.917779922E-1,9.206008782E-1
3.585953861E0,2.493808568E-1,9.076325297E-1,2.980794907E-1,9.873393558E-1
3.590966726E0,2.675283253E-1,9.795678854E-1,1.671009064E-1,1.029100267E0
3.595979642E0,2.737877369E-1,1.029914379E0,9.419250488E-2,1.069839045E0
3.600992559E0,2.463262081E-1,1.080121279E0,1.264095306E-1,1.115041680E0
3.606005424E0,1.515929103E-1,1.073077679E0,6.573581696E-2,1.085724326E0
3.611076361E0,7.764980197E-2,1.044810534E0,9.588050842E-2,1.052070157E0
3.616089278E0,2.897489071E-2,9.904543757E-1,1.638517380E-1,1.004334012E0
3.621102142E0,-4.907765985E-2,9.049907923E-1,2.527351379E-1,9.408995700E-1
3.626115059E0,-7.775941491E-2,8.386645913E-1,3.100843430E-1,8.975283411E-1
3.631127976E0,-7.361423969E-2,8.171983361E-1,3.979282379E-1,9.119095675E-1
3.636140840E0,-5.795845389E-2,7.615790367E-1,4.518795013E-1,8.874440237E-1
3.641212194E0,-4.234617949E-2,7.508738637E-1,4.793033600E-1,8.918163875E-1
3.646225111E0,-4.073458910E-2,7.230934501E-1,4.281358719E-1,8.413226308E-1
3.651237976E0,-4.115137458E-2,7.522715926E-1,3.726558685E-1,8.405226832E-1
3.656250892E0,-2.689588070E-2,7.667691112E-1,3.200149536E-1,8.313048952E-1
3.661263809E0,-2.189400792E-2,7.719752192E-1,2.701492310E-1,8.181721663E-1
3.666276674E0,4.286882281E-2,7.772129178E-1,2.824440002E-1,8.280533007E-1
3.671345944E0,9.303426743E-2,7.680395246E-1,3.231468201E-1,8.384294565E-1
3.676358861E0,1.597175300E-1,7.468450665E-1,3.445158005E-1,8.378415003E-1
3.681371726E0,1.715425849E-1,7.398845553E-1,3.419570923E-1,8.329409743E-1
3.686384642E0,1.973655820E-1,7.159371376E-1,3.180847168E-1,8.078966797E-1
3.691397559E0,2.439281344E-1,6.990080476E-1,2.754564285E-1,7.899300155E-1
3.696410424E0,2.278798819E-1,7.174336314E-1,2.451219559E-1,7.916596676E-1
3.701484642E0,2.256134450E-1,6.805959344E-1,2.222404480E-1,7.506684150E-1
3.706497559E0,2.632157505E-1,6.483526230E-1,2.186260223E-1,7.331036712E-1
3.711510424E0,2.428679764E-1,6.423019171E-1,1.628332138E-1,7.057274702E-1
3.716523340E0,2.484042346E-1,6.335637569E-1,1.170682907E-1,6.905162435E-1
3.721536257E0,2.181932330E-1,6.079665422E-1,6.697463989E-2,6.493975715E-1
3.726549122E0,1.809308231E-1,5.658093095E-1,2.683258057E-2,5.946394915E-1
3.731616934E0,1.843914092E-1,5.453286767E-1,5.355358124E-2,5.781449156E-1
3.736629851E0,1.690588593E-1,5.580416322E-1,2.781105042E-2,5.837506451E-1
3.741642715E0,1.730802655E-1,5.537275076E-1,4.688262939E-3,5.801662786E-1
3.746655632E0,2.081243992E-1,5.515819192E-1,-8.713722229E-3,5.896052137E-1
3.751668549E0,2.717172205E-1,5.608282089E-1,1.842594147E-2,6.234565287E-1
3.756681413E0,3.351971805E-1,5.794470310E-1,1.207828522E-2,6.695236341E-1
3.761756622E0,4.009702206E-1,6.025617123E-1,-1.342773438E-3,7.237814158E-1
3.766769538E0,3.550063074E-1,5.923147202E-1,-5.268192291E-2,6.925616153E-1
3.771782403E0,3.075382710E-1,5.871264935E-1,-9.412956238E-2,6.694458021E-1
3.776795319E0,2.919728160E-1,5.772808790E-1,-1.067514420E-1,6.556654703E-1
3.781808236E0,2.723942995E-1,5.702613592E-1,-1.549634933E-1,6.506998974E-1
3.786821101E0,2.820878625E-1,5.590240955E-1,-2.052240372E-1,6.589373316E-1
3.791902872E0,2.898553014E-1,5.458859205E-1,-2.028656006E-1,6.505090206E-1
3.796915788E0,3.029264808E-1,5.000935793E-1,-1.816043854E-1,6.122403071E-1
3.801928653E0,3.093824387E-1,4.763206244E-1,-1.582012177E-1,5.895985548E-1
3.806941569E0,2.781437635E-1,4.410710335E-1,-1.920433044E-1,5.556871787E-1
3.811954486E0,2.237083316E-1,3.993545771E-1,-1.710186005E-1,4.886479894E-1
3.816967351E0,1.483867168E-1,3.367127180E-1,-1.976909637E-1,4.177029918E-1
3.822029226E0,5.697292089E-2,3.196852207E-1,-2.265014648E-1,3.959134598E-1
3.827042142E0,1.819145679E-2,2.791417837E-1,-2.431812286E-1,3.706591082E-1
3.832055007E0,2.902448177E-3,2.532465458E-1,-2.858247757E-1,3.818874698E-1
3.837067924E0,-1.280564070E-2,2.251513004E-1,-2.900695801E-1,3.674199965E-1
3.842080840E0,-2.195125818E-2,1.853699684E-1,-2.847318649E-1,3.404645618E-1
3.847093705E0,1.393437386E-3,1.363731623E-1,-2.817621231E-1,3.130327061E-1
3.852163028E0,1.468414068E-2,1.377164125E-1,-3.025560379E-1,3.327485392E-1
3.857175944E0,1.816213131E-2,1.082723141E-1,-3.303041458E-1,3.480712366E-1
3.862188809E0,4.307174683E-2,8.677852154E-2,-3.246345520E-1,3.387820531E-1
3.867201726E0,5.873274803E-2,6.128227711E-2,-3.214797974E-1,3.324970876E-1
3.872214642E0,5.360275507E-2,2.009332180E-2,-2.970972061E-1,3.025619719E-1
3.877227507E0,1.374441385E-2,-2.723264694E-2,-2.421598434E-1,2.440735867E-1
3.882294590E0,-3.414782882E-2,-6.397747993E-2,-1.878242493E-1,2.013383738E-1
3.887307507E0,-1.093842685E-1,-1.259305477E-1,-1.506853104E-1,2.247876416E-1
3.892320372E0,-1.526148617E-1,-1.751853228E-1,-7.115936279E-2,2.429914571E-1
3.897333288E0,-1.523889601E-1,-2.523545623E-1,7.180595398E-2,3.034160762E-1
3.902346205E0,-1.973032057E-1,-3.102497458E-1,2.183799744E-1,4.276368471E-1
3.907359069E0,-2.397211641E-1,-3.399455547E-1,3.638439178E-1,5.526405823E-1
3.912424278E0,-2.610819340E-1,-3.417586088E-1,4.274702072E-1,6.063773586E-1
3.917437194E0,-2.570168972E-1,-3.326609731E-1,4.313421249E-1,6.023097519E-1
3.922450059E0,-2.186417282E-1,-3.033799529E-1,3.949995041E-1,5.439376888E-1
3.927462976E0,-1.986814737E-1,-2.346776128E-1,3.021078110E-1,4.310650060E-1
3.932475892E0,-1.661355793E-1,-1.574593782E-1,1.649799347E-1,2.821575187E-1
3.937488757E0,-1.166236103E-1,-6.161749363E-2,5.043125153E-2,1.412129354E-1
3.942553184E0,-6.655323505E-2,1.489460468E-2,-5.127143860E-2,8.532258060E-2
3.947566101E0,4.649654031E-2,8.941841125E-2,-1.688413620E-1,1.966341426E-1
3.952578965E0,1.934787631E-1,1.503915787E-1,-2.190389633E-1,3.286787583E-1
3.957591882E0,2.626237869E-1,2.245209217E-1,-2.191190720E-1,4.091381985E-1
3.962604799E0,3.976883292E-1,1.902825832E-1,-1.409893036E-1,4.628622391E-1
3.967617663E0,5.323895216E-1,1.102885008E-1,1.704120636E-2,5.439600710E-1
3.972697924E0,5.982677937E-1,3.423511982E-2,1.902132034E-1,6.287109504E-1
3.977710840E0,5.941113830E-1,-8.565270901E-2,4.140291214E-1,7.291946484E-1
3.982723705E0,5.490909815E-1,-1.875936985E-1,6.120843887E-1,8.434095094E-1
3.987736622E0,4.278267622E-1,-3.244988918E-1,7.062683105E-1,8.872148532E-1
3.992749538E0,3.404909372E-1,-4.443627000E-1,7.948923111E-1,9.722376632E-1
3.997762403E0,2.696594000E-1,-5.522367954E-1,8.424186707E-1,1.042761184E0
4.002830007E0,1.936615109E-1,-5.844869018E-1,8.920068741E-1,1.083884672E0
4.007844799E0,1.239402294E-1,-5.657267570E-1,7.940349579E-1,9.828018409E-1
4.012859590E0,1.100727916E-1,-5.057236552E-1,6.471252441E-1,8.286395577E-1
4.017874382E0,9.624487162E-2,-4.070239067E-1,4.089450836E-1,5.849509530E-1
4.022889174E0,9.373843670E-2,-2.479621172E-1,7.071113586E-2,2.743577424E-1
4.027903965E0,1.851484179E-1,-4.972338676E-2,-1.957645416E-1,2.740001964E-1
4.032948392E0,1.913846731E-1,1.641985178E-1,-4.244012833E-1,4.936655706E-1
4.037963184E0,1.868206859E-1,3.303424120E-1,-7.296409607E-1,8.224378453E-1
4.042977976E0,1.667569876E-1,4.308149815E-1,-9.636478424E-1,1.068656449E0
4.047992767E0,1.646295786E-1,5.093377829E-1,-1.105690956E0,1.228446322E0
4.053007559E0,1.449705958E-1,4.807772636E-1,-1.073431969E0,1.185082040E0
4.058022351E0,1.630719900E-1,4.311841726E-1,-9.276943207E-1,1.035919407E0
4.063089174E0,2.310346365E-1,4.010840654E-1,-7.193298340E-1,8.553834467E-1
4.068103965E0,2.537198663E-1,2.542587519E-1,-5.271825790E-1,6.379206495E-1
4.073118757E0,2.605226040E-1,3.204596043E-2,-2.774982452E-1,3.819741443E-1
4.078133549E0,2.852584124E-1,-1.469272375E-1,1.032066345E-2,3.210397032E-1
4.083148340E0,2.755656838E-1,-3.314828277E-1,2.671775818E-1,5.071500482E-1
4.088163132E0,3.099945784E-1,-4.483032823E-1,5.979070663E-1,8.090521191E-1
4.093224538E0,3.003867269E-1,-5.813692212E-1,7.643661499E-1,1.006219642E0
4.098239330E0,2.110092640E-1,-6.955978274E-1,7.965297699E-1,1.078351020E0
4.103254122E0,1.253889799E-1,-8.076282144E-1,8.570499420E-1,1.184280512E0
4.108268913E0,2.754449844E-3,-9.082406759E-1,9.053487778E-1,1.282405989E0
4.113283705E0,-7.346886396E-2,-9.264605641E-1,9.439229965E-1,1.324657493E0
4.118298497E0,-1.465929747E-1,-9.460125566E-1,9.253311157E-1,1.331415386E0
4.123357559E0,-2.096217573E-1,-9.596968293E-1,8.809280396E-1,1.319467126E0
4.128372351E0,-3.059278429E-1,-9.680569172E-1,8.086214066E-1,1.297919342E0
4.133387142E0,-3.616936803E-1,-9.377685189E-1,7.371377945E-1,1.246436618E0
4.138401934E0,-3.248361349E-1,-9.047925472E-1,6.569538116E-1,1.164369520E0
4.143416726E0,-2.935907245E-1,-8.144326210E-1,5.491294861E-1,1.025202029E0
4.148431517E0,-2.750453055E-1,-7.311484814E-1,3.734922409E-1,8.658663153E-1
4.153491101E0,-2.452840060E-1,-6.188183427E-1,1.400632858E-1,6.802338634E-1
4.158505892E0,-2.471092790E-1,-4.888361990E-1,-1.222410202E-1,5.612189344E-1
4.163520684E0,-2.587377131E-1,-3.954929113E-1,-3.704738617E-1,6.005087254E-1
4.168535476E0,-3.134649396E-1,-3.499351740E-1,-5.739030838E-1,7.416735427E-1
4.173550267E0,-3.772298098E-1,-3.087323904E-1,-6.854381561E-1,8.410965962E-1
4.178565059E0,-4.236080050E-1,-2.885347605E-1,-7.676143646E-1,9.229993839E-1
4.183625163E0,-4.861575365E-1,-2.724811435E-1,-8.396778107E-1,1.007796581E0
4.188639955E0,-5.315459967E-1,-2.959481478E-1,-9.017295837E-1,1.087769596E0
4.193654747E0,-5.455855727E-1,-3.205531240E-1,-9.182291031E-1,1.115151384E0
4.198669538E0,-5.548754930E-1,-3.583738804E-1,-8.562669754E-1,1.081439681E0
4.203684330E0,-5.407661796E-1,-4.144136608E-1,-7.829666138E-1,1.037884127E0
4.208699122E0,-5.343802571E-1,-4.200473726E-1,-6.936292648E-1,9.711455151E-1
4.213773288E0,-4.764380455E-1,-4.637742341E-1,-6.026210785E-1,8.973471545E-1
4.218788080E0,-3.890688717E-1,-4.811028838E-1,-5.408277512E-1,8.217841737E-1
4.223802872E0,-3.461353183E-1,-4.151083529E-1,-5.507812500E-1,7.716764792E-1
4.228817663E0,-2.477771044E-1,-3.398793936E-1,-6.081371307E-1,7.394202225E-1
4.233832455E0,-1.847640872E-1,-2.788397074E-1,-6.483974457E-1,7.295948176E-1
4.238847247E0,-8.056798577E-2,-2.312036157E-1,-6.575145721E-1,7.016207842E-1
4.243902403E0,4.089212418E-2,-1.801357269E-1,-6.500129700E-1,6.757498850E-1
4.248917194E0,1.155821085E-1,-1.374461651E-1,-5.785350800E-1,6.057668783E-1
4.253931986E0,1.940022409E-1,-1.740289330E-1,-4.864034653E-1,5.518253981E-1
4.258946778E0,2.599405348E-1,-2.112914324E-1,-3.096227646E-1,4.561572178E-1
4.263961569E0,3.019630015E-1,-3.063879013E-1,-1.296634674E-1,4.492970233E-1
4.268976361E0,3.322325051E-1,-4.450404942E-1,5.823802948E-2,5.584184336E-1
4.274029955E0,3.206750751E-1,-5.538990498E-1,2.991752625E-1,7.065001760E-1
4.279044747E0,2.747617662E-1,-6.477115750E-1,4.288139343E-1,8.239573429E-1
4.284059538E0,2.136879563E-1,-7.505059242E-1,4.694738388E-1,9.106741296E-1
4.289074330E0,1.290102601E-1,-8.378131986E-1,5.350055695E-1,1.002399901E0
4.294089122E0,-6.727457047E-3,-9.024162292E-1,7.081632614E-1,1.147124890E0
4.299103913E0,-9.304085374E-2,-9.472987056E-1,8.572635651E-1,1.280988781E0
4.304171517E0,-2.278628647E-1,-9.630845189E-1,9.416599274E-1,1.366080779E0
4.309186309E0,-3.424555361E-1,-9.737749100E-1,8.561944962E-1,1.341112368E0
4.314201101E0,-3.989425302E-1,-9.099727273E-1,7.446441650E-1,1.241652302E0
4.319215892E0,-4.598053098E-1,-8.001729846E-1,6.046352386E-1,1.103304808E0
4.324230684E0,-4.324133694E-1,-6.896613240E-1,4.338226318E-1,9.223969535E-1
4.329245476E0,-3.603342772E-1,-5.300835371E-1,2.178707123E-1,6.769763621E-1
4.334294642E0,-4.136614799E-1,-3.741104901E-1,1.219234467E-1,5.709113816E-1
4.339309434E0,-4.989731610E-1,-2.570208013E-1,-8.867359161E-2,5.682401900E-1
4.344324226E0,-5.546875596E-1,-1.592721343E-1,-3.754949570E-1,6.885073451E-1
4.349339017E0,-5.210737586E-1,-6.825643778E-2,-5.423040390E-1,7.551625480E-1
4.354353809E0,-4.908140898E-1,3.054183722E-2,-5.534038544E-1,7.403290489E-1
4.359368601E0,-4.565630555E-1,1.037175655E-1,-5.477666855E-1,7.205938515E-1
4.364428705E0,-5.306572914E-1,7.740533352E-2,-6.235322952E-1,8.224240207E-1
4.369443497E0,-5.091966391E-1,6.667983532E-2,-6.322860718E-1,8.145631309E-1
4.374458288E0,-4.830331504E-1,3.568714857E-2,-5.741224289E-1,7.511399073E-1
4.379473080E0,-4.709482789E-1,-2.808278799E-2,-3.797168732E-1,6.056119452E-1
4.384487872E0,-4.750710130E-1,-7.948702574E-2,-2.334489822E-1,5.352654313E-1
4.389502663E0,-4.832872748E-1,-1.404224634E-1,-1.591644287E-1,5.278431335E-1
4.394564799E0,-5.100951791E-1,-1.845897436E-1,-1.232709885E-1,5.562968648E-1
4.399579590E0,-4.716717005E-1,-2.002106011E-1,-7.068347931E-2,5.172568338E-1
4.404594382E0,-4.806671143E-1,-1.993501484E-1,-8.036804199E-2,5.265362082E-1
4.409609174E0,-4.968629181E-1,-2.083511651E-1,-7.566261292E-2,5.440659872E-1
4.414623965E0,-4.651077688E-1,-2.154017091E-1,-7.332897186E-2,5.177840003E-1
4.419638757E0,-4.670219123E-1,-1.991235614E-1,-8.747100830E-3,5.077757094E-1
4.424697663E0,-4.431171119E-1,-1.836213470E-1,2.472496033E-2,4.802925125E-1
4.429712455E0,-4.125867188E-1,-1.474944353E-1,8.172988892E-4,4.381587349E-1
4.434727247E0,-3.874558508E-1,-8.358508348E-2,-3.015613556E-2,3.975146476E-1
4.439742038E0,-3.318097591E-1,-4.696875811E-2,-5.622005463E-2,3.398006401E-1
4.444756830E0,-2.790673375E-1,3.696638346E-2,-8.937835693E-2,2.953533190E-1
4.449771622E0,-2.553446889E-1,1.106437445E-1,-1.559381485E-1,3.189978910E-1
4.454843288E0,-2.749441862E-1,1.024729609E-1,-2.439088821E-1,3.815580638E-1
4.459858080E0,-3.089852929E-1,1.563922167E-1,-3.604650497E-1,4.998654707E-1
4.464872872E0,-3.047875166E-1,2.295277715E-1,-4.218502045E-1,5.688022707E-1
4.469887663E0,-2.885811925E-1,2.719911337E-1,-5.453996658E-1,6.743286120E-1
4.474902455E0,-3.056198061E-1,3.318718076E-1,-6.329679489E-1,7.772971033E-1
4.479917247E0,-2.530286312E-1,3.685745597E-1,-6.750345230E-1,8.096556685E-1
4.484966309E0,-1.953489631E-1,4.278950691E-1,-7.003955841E-1,8.436879647E-1
4.489981101E0,-1.827479303E-1,4.568601847E-1,-6.851291656E-1,8.435164539E-1
4.494995892E0,-1.217632890E-1,4.530556202E-1,-6.292858124E-1,7.849116684E-1
4.500010684E0,-1.057703495E-1,4.860656261E-1,-5.616378784E-1,7.502561337E-1
4.505025476E0,-8.711585402E-2,4.859882593E-1,-5.108661652E-1,7.104632284E-1
4.510040267E0,-8.417889476E-2,4.472727776E-1,-4.284372330E-1,6.250579865E-1
4.515100997E0,-5.743533373E-2,4.066213965E-1,-3.229522705E-1,5.224346339E-1
4.520117299E0,-4.508358240E-2,3.708007932E-1,-2.207078934E-1,4.338637249E-1
4.525133549E0,-5.164521933E-2,3.490924835E-1,-9.553813934E-2,3.655958517E-1
4.530149851E0,-8.172073960E-2,3.362716436E-1,-4.623413086E-3,3.460899790E-1
4.535166153E0,-1.352349520E-1,3.252529502E-1,3.093910217E-2,3.536031701E-1
4.540182455E0,-1.574476063E-1,3.206622601E-1,-1.213169098E-2,3.574370038E-1
4.545236674E0,-1.866841316E-1,3.273036480E-1,-5.241584778E-2,3.804287898E-1
4.550252976E0,-2.133848965E-1,3.261833191E-1,-8.756923676E-2,3.994959861E-1
4.555269226E0,-2.401501387E-1,3.434954882E-1,-1.104984283E-1,4.334410481E-1
4.560285528E0,-2.432714552E-1,3.483574390E-1,-1.189374924E-1,4.412256037E-1
4.565301830E0,-2.345243096E-1,3.764613867E-1,-1.248950958E-1,4.607858640E-1
4.570318132E0,-1.974115372E-1,3.946543932E-1,-1.664199829E-1,4.716132057E-1
4.575368809E0,-1.676310003E-1,4.554075003E-1,-2.456064224E-1,5.438921385E-1
4.580385111E0,-1.521465480E-1,5.279870033E-1,-3.788108826E-1,6.673953345E-1
4.585401361E0,-1.437619328E-1,5.771058798E-1,-4.705934525E-1,7.584041715E-1
4.590417663E0,-1.400898695E-1,5.843653083E-1,-5.355815887E-1,8.049569077E-1
4.595433965E0,-1.194577515E-1,5.620961189E-1,-5.241317749E-1,7.777765224E-1
4.600450267E0,-1.244072318E-1,5.389469862E-1,-4.463920593E-1,7.107790683E-1
4.605505424E0,-1.548869014E-1,4.887346625E-1,-3.456630707E-1,6.183320152E-1
4.610521726E0,-2.012692243E-1,4.209735990E-1,-2.506208420E-1,5.296592094E-1
4.615537976E0,-2.014478594E-1,3.501006961E-1,-1.208457947E-1,4.216105354E-1
4.620554278E0,-2.273916602E-1,2.757874131E-1,4.104137421E-2,3.597916880E-1
4.625570580E0,-2.291510403E-1,2.263112068E-1,1.397771835E-1,3.510906189E-1
4.630586882E0,-2.355888486E-1,1.891767383E-1,2.852020264E-1,4.154878334E-1
4.635636778E0,-2.209738344E-1,9.977668524E-2,4.460887909E-1,5.077204268E-1
4.640653080E0,-2.213554382E-1,3.885483742E-2,6.175975800E-1,6.572173911E-1
4.645669330E0,-1.987304240E-1,-2.022063732E-2,7.877864838E-1,8.127177860E-1
4.650685684E0,-1.534013748E-1,-9.925478697E-2,8.949337006E-1,9.133946699E-1
4.655701934E0,-1.378570050E-1,-1.390653849E-1,1.013230324E0,1.031978403E0
4.660718236E0,-1.141061485E-1,-2.065458596E-1,1.095084190E0,1.120219081E0
4.665784122E0,-7.006084919E-2,-2.517508864E-1,1.155053139E0,1.184244394E0
4.670800424E0,-3.641426563E-2,-2.559393644E-1,1.221817970E0,1.248867531E0
4.675816726E0,-9.506642818E-4,-2.550633848E-1,1.197915077E0,1.224768862E0
4.680832976E0,4.896527529E-2,-2.106381059E-1,1.157677650E0,1.177702659E0
4.685849278E0,7.118028402E-2,-2.155689597E-1,1.053696632E0,1.077874391E0
4.690865580E0,6.378749013E-2,-1.378929019E-1,8.317956924E-1,8.455574317E-1
4.695916205E0,5.770266056E-3,-2.276533842E-2,4.786529541E-1,4.792287628E-1
4.700932507E0,-7.607933879E-2,8.347588778E-2,6.888771057E-2,1.322943925E-1
4.705948757E0,-8.912140131E-2,2.341003418E-1,-3.400802612E-1,4.223744527E-1
4.710965059E0,-1.268720478E-1,3.441992998E-1,-7.103109360E-1,7.994443697E-1
4.715981361E0,-1.421292126E-1,4.294482470E-1,-1.037439346E0,1.131771579E0
4.720997663E0,-1.166916639E-1,5.072410107E-1,-1.283832550E0,1.385328988E0
4.726040424E0,-6.575787067E-2,5.114239454E-1,-1.333758354E0,1.429961502E0
4.731056726E0,-2.541261911E-2,4.465392232E-1,-1.096122742E0,1.183861539E0
4.736072976E0,-5.487045646E-2,2.500632405E-1,-6.349754333E-1,6.846431130E-1
4.741089278E0,-1.249837279E-1,-4.339218140E-5,-8.033180237E-2,1.485736605E-1
4.746105580E0,-2.571479082E-1,-3.072840869E-1,4.531345367E-1,6.048797113E-1
4.751121882E0,-3.606632650E-1,-5.583722591E-1,8.896732330E-1,1.110574640E0
4.756173340E0,-4.858104289E-1,-7.881765962E-1,1.194526672E0,1.511333216E0
4.761189642E0,-5.403252244E-1,-9.147791862E-1,1.397364616E0,1.755391745E0
4.766205892E0,-5.703856349E-1,-1.065017819E0,1.551295280E0,1.966245095E0
4.771222194E0,-5.086846352E-1,-1.152433872E0,1.630296707E0,2.060274555E0
4.776238497E0,-3.198094964E-1,-1.212703228E0,1.697525978E0,2.110573780E0
4.781254799E0,-9.438191354E-2,-1.166979671E0,1.793656349E0,2.141950652E0
4.786306153E0,9.871777892E-2,-1.017561436E0,1.743968010E0,2.021534292E0
4.791322455E0,2.383307815E-1,-8.689786792E-1,1.488776207E0,1.740224152E0
4.796338705E0,2.867248654E-1,-7.053804398E-1,1.095238686E0,1.333911726E0
4.801355007E0,3.591159284E-1,-5.493457317E-1,6.615390778E-1,9.318685178E-1
4.806371309E0,3.984334767E-1,-3.852583468E-1,2.689886093E-1,6.160585208E-1
4.811387611E0,4.316558540E-1,-2.522739470E-1,2.987194061E-2,5.008605130E-1
4.816438913E0,4.805462658E-1,-1.905079782E-1,-1.302127838E-1,5.330791428E-1
4.821455215E0,6.054520607E-1,-1.422879398E-1,-1.635475159E-1,6.430908533E-1
4.826471465E0,6.896774769E-1,-2.251958251E-1,-1.048278809E-2,7.255880860E-1
4.831487767E0,7.428444624E-1,-3.319294751E-1,2.713623047E-1,8.576902542E-1
4.836504069E0,6.862308979E-1,-4.802936018E-1,5.790061951E-1,1.018254862E0
4.841520372E0,5.650490522E-1,-6.615430117E-1,8.263530731E-1,1.199907909E0
4.846577611E0,4.124043584E-1,-8.335341215E-1,9.968051910E-1,1.363259724E0
4.851593913E0,2.946079075E-1,-9.540334940E-1,1.164694786E0,1.534108103E0
4.856610163E0,2.134866118E-1,-1.038215995E0,1.298978806E0,1.676548515E0
4.861626465E0,2.093752325E-1,-1.134568453E0,1.397344589E0,1.812085943E0
4.866642767E0,2.483269870E-1,-1.186029673E0,1.423974991E0,1.869769358E0
4.871659069E0,2.653822601E-1,-1.168944478E0,1.371805191E0,1.821732258E0
4.876713965E0,1.577236354E-1,-1.131306291E0,1.224185944E0,1.674324309E0
4.881730267E0,7.353758812E-2,-1.079899073E0,9.692687988E-1,1.452952783E0
4.886746517E0,-4.005394876E-2,-9.922981858E-1,6.023683548E-1,1.161510931E0
4.891762872E0,-1.759407222E-1,-8.367125392E-1,2.575731277E-1,8.929652441E-1
4.896779122E0,-1.882022321E-1,-7.272809744E-1,-7.714653015E-2,7.551882434E-1
4.901795424E0,-1.556810141E-1,-6.247227192E-1,-3.683662415E-1,7.417605691E-1
4.906864747E0,-1.688695848E-1,-5.261350274E-1,-6.783905029E-1,8.749563865E-1
4.911881049E0,-1.320720911E-1,-4.520582557E-1,-8.971986771E-1,1.013294217E0
4.916897351E0,-5.944485962E-2,-3.876553178E-1,-1.022552490E0,1.095182146E0
4.921913653E0,-5.863392353E-2,-3.087852299E-1,-1.128755569E0,1.171697653E0
4.926929903E0,-6.516814232E-2,-3.206310868E-1,-1.194304466E0,1.238311083E0
4.931946205E0,-4.095874727E-2,-3.657706678E-1,-1.212061882E0,1.266712203E0
4.936983392E0,2.046838403E-3,-3.940625787E-1,-1.115092278E0,1.182675058E0
4.941999694E0,-2.499802411E-2,-4.654675424E-1,-1.006401062E0,1.109111370E0
4.947015944E0,-1.235917211E-2,-5.254182220E-1,-8.955326080E-1,1.038362032E0
4.952032299E0,3.045979142E-2,-5.957822800E-1,-7.394037247E-1,9.500537838E-1
4.957048549E0,1.082456261E-1,-6.746757030E-1,-5.930671692E-1,9.047834476E-1
4.962064851E0,1.468012482E-1,-7.190815806E-1,-4.158325195E-1,8.435316297E-1
4.967110476E0,1.991771460E-1,-7.701287866E-1,-2.627496719E-1,8.377393828E-1
4.972126830E0,1.794692725E-1,-8.161155581E-1,-1.146373749E-1,8.434426784E-1
4.977143080E0,1.785756201E-1,-9.076501727E-1,-2.649497986E-2,9.254296689E-1
4.982159434E0,1.608487815E-1,-1.002082705E0,1.668529510E-1,1.028533901E0
4.987175684E0,1.050755680E-1,-1.066483974E0,4.198360443E-1,1.150952322E0
4.992191986E0,-1.055674255E-2,-1.132406712E0,5.122947693E-1,1.242941003E0
4.997243236E0,-1.141050309E-1,-1.192947149E0,5.640611649E-1,1.324502872E0
5.002259538E0,-1.266720295E-1,-1.197886705E0,5.560445786E-1,1.326711700E0
5.007275788E0,-1.031466946E-1,-1.147309542E0,4.978847504E-1,1.254929341E0
5.012292142E0,-1.059781611E-1,-1.043734670E0,4.422826767E-1,1.138519827E0
5.017308392E0,-7.302056253E-2,-9.059014916E-1,2.982997894E-1,9.565418336E-1
5.022324694E0,-3.342668712E-2,-7.552382946E-1,1.162910461E-1,7.648698141E-1
5.027379538E0,5.606949329E-3,-6.077537537E-1,-1.061201096E-1,6.169745057E-1
5.032397038E0,7.506343722E-2,-4.390938878E-1,-3.258361816E-1,5.519122930E-1
5.037414538E0,1.057874560E-1,-2.944127321E-1,-4.830703735E-1,5.755230912E-1
5.042432038E0,9.060779214E-2,-1.804425716E-1,-6.401243210E-1,6.712141536E-1
5.047449538E0,6.789934635E-2,-6.566756964E-2,-7.730922699E-1,7.788415813E-1
5.052467038E0,4.968678951E-2,-7.298916578E-3,-8.844079971E-1,8.858326911E-1
5.057515684E0,5.747973919E-2,6.426870823E-2,-9.334363937E-1,9.374102029E-1
5.062533184E0,5.540388823E-2,1.154235899E-1,-9.561347961E-1,9.646688263E-1
5.067550684E0,5.535383523E-2,1.367785037E-1,-9.381895065E-1,9.497220416E-1
5.072568184E0,7.163503766E-2,1.090701520E-1,-8.772468567E-1,8.868990496E-1
5.077585684E0,1.422576308E-1,1.085457206E-1,-8.570699692E-1,8.755503064E-1
5.082603184E0,1.619857848E-1,6.089955568E-2,-7.388391495E-1,7.588355811E-1
5.087661361E0,2.385395169E-1,3.987786174E-2,-6.135683060E-1,6.595130105E-1
5.092678861E0,3.195345998E-1,2.190679312E-3,-4.358062744E-1,5.404019507E-1
5.097696361E0,3.833787739E-1,-1.031292677E-1,-2.773571014E-1,4.842952528E-1
5.102713861E0,4.515758157E-1,-1.755140126E-1,-2.004013062E-1,5.242962611E-1
5.107731361E0,4.909895658E-1,-2.080359161E-1,-8.760452271E-2,5.403926800E-1
5.112748861E0,5.115287900E-1,-2.511368096E-1,2.509593964E-2,5.704044235E-1
5.117789590E0,5.254549980E-1,-2.884147763E-1,9.224987030E-2,6.064619334E-1
5.122807090E0,4.635107219E-1,-2.980358899E-1,1.186771393E-1,5.636948149E-1
5.127824590E0,4.287316203E-1,-2.729515433E-1,9.486198425E-2,5.170223818E-1
5.132842090E0,4.403334260E-1,-2.462312877E-1,-7.870674133E-3,5.045644861E-1
5.137859590E0,4.696625173E-1,-1.649343073E-1,-9.852504730E-2,5.074380660E-1
5.142877090E0,4.903790653E-1,-6.714665890E-2,-2.201938629E-1,5.417246891E-1
5.147917663E0,4.687731564E-1,4.034665227E-2,-3.489255905E-1,5.857688898E-1
5.152935163E0,4.405068755E-1,1.387697160E-1,-4.488334656E-1,6.440146126E-1
5.157952663E0,4.438650906E-1,2.140251696E-1,-5.391035080E-1,7.303804380E-1
5.162970163E0,4.092184305E-1,2.517846823E-1,-6.149568558E-1,7.804019378E-1
5.167987663E0,3.314499855E-1,2.831545472E-1,-6.357231140E-1,7.708303758E-1
5.173005163E0,2.944587767E-1,2.889482975E-1,-5.320901871E-1,6.732882421E-1
5.178051153E0,2.647523582E-1,2.592142224E-1,-4.621009827E-1,5.923032521E-1
5.183068653E0,2.663488090E-1,2.323174477E-1,-3.826522827E-1,5.208990824E-1
5.188086153E0,2.897401452E-1,1.961966455E-1,-2.913646698E-1,4.553414612E-1
5.193103653E0,2.320762575E-1,1.409771144E-1,-1.834535599E-1,3.277028299E-1
5.198121153E0,1.533041596E-1,3.746372461E-2,-5.413532257E-2,1.668422284E-1
5.203138653E0,6.514140964E-2,-6.232166290E-2,8.942890167E-2,1.269839414E-1
5.208190944E0,-8.542746305E-3,-1.322121024E-1,1.778459549E-1,2.217706072E-1
5.213208444E0,-4.409709573E-2,-1.246081591E-1,1.968498230E-1,2.371109444E-1
5.218225944E0,-5.373814702E-2,-1.281334162E-1,1.465349197E-1,2.019367314E-1
5.223243444E0,-8.566603065E-2,-1.426670253E-1,1.035566330E-1,1.960013397E-1
5.228260944E0,-7.077112794E-2,-1.034513712E-1,1.288509369E-2,1.260030333E-1
5.233278444E0,-5.457028747E-2,-4.649296403E-2,-7.277870178E-2,1.021579728E-1
5.238316101E0,6.137937307E-3,1.992613077E-3,-1.319160461E-1,1.320737976E-1
5.243333601E0,9.715148807E-2,8.316498995E-2,-2.100458145E-1,2.459147645E-1
5.248351101E0,1.731792390E-1,1.853442192E-1,-3.310890198E-1,4.170892799E-1
5.253368601E0,1.914761066E-1,2.347658873E-1,-4.017162323E-1,5.031441667E-1
5.258386101E0,2.481812239E-1,2.650436759E-1,-5.009603500E-1,6.187110330E-1
5.263403601E0,2.263365984E-1,2.838442326E-1,-6.072921753E-1,7.075306285E-1
5.268451830E0,2.123495638E-1,3.558860421E-1,-6.704740524E-1,7.882148611E-1
5.273469330E0,1.991092563E-1,3.689920306E-1,-7.623615265E-1,8.700544303E-1
5.278486830E0,1.410968304E-1,3.904201984E-1,-8.039760590E-1,9.048280225E-1
5.283504330E0,1.292132437E-1,4.083147645E-1,-8.240985870E-1,9.287386556E-1
5.288521830E0,6.037789583E-2,4.176765680E-1,-8.131704330E-1,9.161579334E-1
5.293539330E0,5.412742496E-2,4.208058715E-1,-8.023204803E-1,9.075932529E-1
5.298606569E0,6.934577227E-2,4.320814013E-1,-7.843599319E-1,8.981779759E-1
5.303624069E0,8.408406377E-2,4.345863461E-1,-7.305603027E-1,8.541977394E-1
5.308641569E0,1.461854279E-1,4.163919687E-1,-6.768579483E-1,8.080155525E-1
5.313659069E0,1.718627214E-1,3.629532456E-1,-5.873498917E-1,7.115137025E-1
5.318676569E0,1.965662241E-1,3.267492056E-1,-5.027227402E-1,6.309781908E-1
5.323694069E0,2.610473335E-1,3.028509617E-1,-3.846845627E-1,5.548392813E-1
5.328720111E0,3.465292156E-1,2.481244802E-1,-2.811412811E-1,5.105768061E-1
5.333737611E0,4.028527439E-1,1.887756586E-1,-1.896772385E-1,4.836362655E-1
5.338755111E0,4.423865378E-1,1.055572629E-1,-7.679176331E-2,4.612430590E-1
5.343772611E0,4.605603516E-1,2.248764038E-2,-4.729270935E-3,4.611332751E-1
5.348790111E0,5.222536922E-1,-6.282126904E-2,1.246404648E-1,5.405836441E-1
5.353807611E0,5.366475582E-1,-1.383994818E-1,2.442493439E-1,6.056424360E-1
5.358860215E0,5.220944881E-1,-2.293957472E-1,3.254680634E-1,6.566083487E-1
5.363877715E0,4.303079545E-1,-3.294829130E-1,3.679742813E-1,6.550793825E-1
5.368895215E0,3.044947088E-1,-4.005559385E-1,3.934774399E-1,6.387382744E-1
5.373912715E0,1.828198731E-1,-4.503790438E-1,4.045219421E-1,6.323783605E-1
5.378930215E0,9.101992846E-2,-4.552216530E-1,3.869829178E-1,6.043733609E-1
5.383947715E0,3.344145417E-2,-4.177307487E-1,3.292226791E-1,5.329210839E-1
5.388990684E0,5.225607753E-2,-3.644105196E-1,2.315912247E-1,4.349255336E-1
5.394008184E0,1.253446639E-1,-2.571538687E-1,1.846857071E-1,3.405116846E-1
5.399025684E0,2.049323618E-1,-1.319786608E-1,6.691551208E-2,2.527712911E-1
5.404043184E0,2.598305941E-1,-3.143626451E-2,-2.611160278E-2,2.630246987E-1
5.409060684E0,2.900483012E-1,1.211550236E-1,-1.516342163E-1,3.489978400E-1
5.414078184E0,3.267889619E-1,2.257873416E-1,-2.547597885E-1,4.718829294E-1
5.419119851E0,3.155134916E-1,2.712918520E-1,-3.214483261E-1,5.258108583E-1
5.424137351E0,2.258496284E-1,2.843525410E-1,-3.092527390E-1,4.769713605E-1
5.429154851E0,1.228811145E-1,2.482582331E-1,-1.903181076E-1,3.360846629E-1
5.434172351E0,1.181316376E-2,2.177096009E-1,-8.193397522E-2,2.329167179E-1
5.439189851E0,-1.408188045E-1,2.710132599E-1,-6.001281738E-2,3.112549774E-1
5.444207351E0,-2.427404821E-1,3.177105784E-1,-1.689605713E-1,4.340629309E-1
5.449257715E0,-2.264825702E-1,4.083988667E-1,-3.744182587E-1,5.985591210E-1
5.454275215E0,-1.416719258E-1,4.219819307E-1,-5.187559128E-1,6.835549586E-1
5.459292715E0,2.508383989E-2,4.401377439E-1,-4.599466324E-1,6.371038670E-1
5.464310215E0,3.044409752E-1,4.220988154E-1,-2.258052826E-1,5.673092129E-1
5.469327715E0,5.721001029E-1,4.178372622E-1,9.195327759E-2,7.143821881E-1
5.474345215E0,7.696015835E-1,3.435196877E-1,5.116424561E-1,9.859362941E-1
5.479387663E0,9.174557328E-1,1.779451966E-1,9.254941940E-1,1.315267660E0
5.484405163E0,9.867007732E-1,-4.318332672E-2,1.373893738E0,1.692048232E0
5.489422663E0,9.551703930E-1,-2.704443634E-1,1.804277420E0,2.059346411E0
5.494440163E0,8.578714728E-1,-4.733893275E-1,2.088466644E0,2.306888347E0
5.499457663E0,7.410467267E-1,-6.194573045E-1,2.225274086E0,2.425844670E0
5.504475163E0,5.953438282E-1,-7.188537121E-1,2.230176926E0,2.417617433E0
5.509525788E0,4.621514082E-1,-7.604706287E-1,2.097755432E0,2.278700804E0
5.514543288E0,3.554887176E-1,-7.535246611E-1,1.836221695E0,2.016403173E0
5.519560788E0,2.961385846E-1,-6.475401521E-1,1.601284027E0,1.752460226E0
5.524578288E0,2.998584509E-1,-5.430014729E-1,1.330760956E0,1.468226962E0
5.529595788E0,3.133149147E-1,-3.938933313E-1,1.010357857E0,1.128778628E0
5.534613288E0,3.505566120E-1,-2.575706840E-1,6.975727081E-1,8.220950545E-1
5.539654434E0,3.634845018E-1,-1.311676800E-1,4.402379990E-1,5.857776362E-1
5.544672924E0,2.947038412E-1,-4.541823268E-2,1.808528900E-1,3.487419357E-1
5.549691361E0,1.083357334E-1,-1.380127668E-2,-8.778858185E-2,1.401211671E-1
5.554709851E0,-1.263695359E-1,-5.504781008E-2,-3.297805786E-1,3.574279662E-1
5.559728288E0,-2.778905034E-1,-4.669854045E-2,-4.614238739E-1,5.406624427E-1
5.564746778E0,-3.338598311E-1,-5.353909731E-2,-4.422101974E-1,5.566674775E-1
5.569797038E0,-3.948095441E-1,-1.208416969E-1,-3.919601440E-1,5.693066365E-1
5.574815528E0,-3.795404434E-1,-2.129048705E-1,-2.819786072E-1,5.185473623E-1
5.579833965E0,-3.334297538E-1,-2.944304347E-1,-7.643604279E-2,4.513392850E-1
5.584852455E0,-2.204560637E-1,-3.591719270E-1,2.078237534E-1,4.698894143E-1
5.589870892E0,-7.398158312E-2,-4.292713106E-1,4.821844101E-1,6.498068467E-1
5.594889382E0,3.392672539E-2,-5.078269243E-1,6.797056198E-1,8.491401165E-1
5.599923497E0,1.368222237E-1,-5.427580476E-1,8.100643158E-1,9.846374027E-1
5.604941986E0,2.634125948E-1,-5.846889019E-1,9.020614624E-1,1.106780100E0
5.609960424E0,3.610436320E-1,-5.954759121E-1,9.653129578E-1,1.190282812E0
5.614978913E0,4.226266742E-1,-6.183851957E-1,1.016602516E0,1.262732843E0
5.619997351E0,4.054652452E-1,-6.629348397E-1,9.865417480E-1,1.255846044E0
5.625015840E0,2.689185739E-1,-7.099865675E-1,9.111261368E-1,1.185980170E0
5.630059434E0,1.111792922E-1,-6.776256561E-1,8.071498871E-1,1.059730298E0
5.635077924E0,-6.101012230E-2,-6.683230400E-1,4.952230453E-1,8.340406378E-1
5.640096361E0,-1.041776538E-1,-6.411930323E-1,3.392715454E-1,7.328619718E-1
5.645114851E0,-9.986847639E-2,-6.198396683E-1,1.476917267E-1,6.449711413E-1
5.650133288E0,-1.725167036E-2,-5.921334028E-1,-2.921867371E-2,5.931048118E-1
5.655151778E0,1.174289584E-1,-5.767663717E-1,-1.269025803E-1,6.021239679E-1
5.660190372E0,1.845570207E-1,-5.450907946E-1,-1.813497543E-1,6.033846216E-1
5.665208861E0,1.797962785E-1,-5.471048355E-1,-2.428836823E-1,6.250143086E-1
5.670227299E0,1.196208000E-1,-5.275281072E-1,-3.952226639E-1,6.699223789E-1
5.675245788E0,1.164967418E-1,-4.788925052E-1,-5.928030014E-1,7.709247180E-1
5.680264226E0,-6.383597851E-3,-4.749630690E-1,-6.705236435E-1,8.217253943E-1
5.685282715E0,-6.011897326E-2,-4.552458823E-1,-9.108648300E-1,1.020067568E0
5.690331778E0,-4.072844982E-3,-4.384775460E-1,-1.031332016E0,1.120680540E0
5.695350267E0,-5.082523823E-2,-4.243440032E-1,-1.039298058E0,1.123739957E0
5.700368705E0,-7.807940245E-2,-4.750419259E-1,-1.004299164E0,1.113722602E0
5.705387194E0,-1.003710330E-1,-5.358366966E-1,-9.550752640E-1,1.099710903E0
5.710405632E0,-9.841969609E-2,-5.660812855E-1,-8.796901703E-1,1.050708929E0
5.715424122E0,-9.377753735E-2,-6.449407339E-1,-7.685976028E-1,1.007712782E0
5.720458653E0,-8.139872551E-2,-7.153478861E-1,-6.026992798E-1,9.389327838E-1
5.725477142E0,-1.047931314E-1,-8.210720420E-1,-3.939704895E-1,9.167080479E-1
5.730495580E0,-1.758874655E-1,-9.263181686E-1,-2.405500412E-1,9.730704355E-1
5.735514069E0,-1.820117235E-1,-1.050761342E0,-8.971977234E-2,1.070176295E0
5.740532507E0,-1.376114190E-1,-1.137367845E0,6.332397461E-2,1.147411191E0
5.745550997E0,-1.767319739E-1,-1.263058662E0,1.970596313E-1,1.290497529E0
5.750596309E0,-2.584936619E-1,-1.368373036E0,3.474092484E-1,1.435255004E0
5.755614799E0,-3.611934185E-1,-1.436774969E0,3.444833755E-1,1.521003548E0
5.760633236E0,-4.826156497E-1,-1.480319142E0,2.865810394E-1,1.583158653E0
5.765651726E0,-5.583035350E-1,-1.462875962E0,1.976947784E-1,1.578224364E0
5.770670215E0,-5.716258883E-1,-1.417585492E0,6.827926636E-2,1.530021844E0
5.775688653E0,-5.609872937E-1,-1.301638246E0,-5.136013031E-2,1.418311224E0
5.780740476E0,-5.549433231E-1,-1.174721718E0,-1.803913116E-1,1.311668491E0
5.785758965E0,-4.938624501E-1,-1.009935021E0,-3.092479706E-1,1.165977347E0
5.790777403E0,-4.686411321E-1,-8.667241335E-1,-4.977645874E-1,1.103904352E0
5.795795840E0,-4.772121012E-1,-7.352806926E-1,-6.908273697E-1,1.116069685E0
5.800814278E0,-4.763120711E-1,-6.270739436E-1,-8.597517014E-1,1.165876455E0
5.805832767E0,-4.969980419E-1,-5.344803333E-1,-9.998044968E-1,1.237855126E0
5.810886934E0,-5.777226686E-1,-4.763675332E-1,-1.103846550E0,1.333854083E0
5.815905424E0,-6.206716299E-1,-4.742420912E-1,-1.133625984E0,1.376679594E0
5.820923861E0,-6.403911710E-1,-4.780700207E-1,-1.084429741E0,1.347085617E0
5.825942351E0,-6.510010958E-1,-4.786442220E-1,-9.539623260E-1,1.250178722E0
5.830960788E0,-5.592601895E-1,-5.363070369E-1,-7.877559662E-1,1.104969076E0
5.835979278E0,-4.489167035E-1,-5.580102801E-1,-6.241273880E-1,9.499666709E-1
5.840997507E0,-3.891535997E-1,-5.991045833E-1,-5.013532639E-1,8.727668194E-1
5.846015997E0,-3.632267714E-1,-6.502956152E-1,-4.121875763E-1,8.513029265E-1
5.851034434E0,-3.450402617E-1,-6.543092132E-1,-3.589620590E-1,8.222086648E-1
5.856052924E0,-3.656868935E-1,-6.783528328E-1,-2.818107605E-1,8.205527250E-1
5.861071361E0,-3.413319588E-1,-6.817758679E-1,-2.573232651E-1,8.046993867E-1
5.866089851E0,-2.981517911E-1,-6.742101312E-1,-2.328081131E-1,7.730804674E-1
5.871134955E0,-1.978942752E-1,-6.484197974E-1,-2.321920395E-1,7.166055547E-1
5.876153444E0,-6.907933950E-2,-6.256789565E-1,-2.243700027E-1,6.682724070E-1
5.881171882E0,1.199346781E-2,-5.965334773E-1,-2.237119675E-1,6.372150949E-1
5.886190372E0,5.750709772E-2,-5.561037064E-1,-2.517566681E-1,6.131393141E-1
5.891208809E0,3.665316105E-2,-4.778049588E-1,-2.893533707E-1,5.597913951E-1
5.896227299E0,3.539031744E-2,-3.998704553E-1,-4.202184677E-1,5.811474995E-1
5.901264069E0,2.976626158E-2,-3.195077479E-1,-5.700845718E-1,6.541923649E-1
5.906282559E0,4.870581627E-2,-2.435792387E-1,-6.552181244E-1,7.007238347E-1
5.911300997E0,3.928118944E-2,-1.767346561E-1,-7.761774063E-1,7.970128710E-1
5.916319486E0,3.716701269E-2,-3.035184741E-2,-9.041996002E-1,9.054719976E-1
5.921337924E0,5.177110434E-2,7.626056671E-2,-9.699058533E-1,9.742757749E-1
5.926356413E0,5.435752869E-2,1.263575256E-1,-9.996900558E-1,1.009109099E0
5.931400944E0,5.935579538E-2,1.533853710E-1,-9.792404175E-1,9.929561812E-1
5.936419434E0,3.566002846E-2,1.808361411E-1,-9.468774796E-1,9.646503557E-1
5.941437872E0,-4.943370819E-3,1.967416406E-1,-9.313144684E-1,9.518814785E-1
5.946456361E0,-7.352948189E-3,2.199399173E-1,-9.085931778E-1,9.348631963E-1
5.951474799E0,-3.381878138E-2,2.144258916E-1,-8.787164688E-1,9.051324796E-1
5.956493288E0,-3.912192583E-2,2.064006627E-1,-8.464565277E-1,8.721355468E-1
5.961530736E0,-4.944837093E-2,2.244128883E-1,-7.998523712E-1,8.322079677E-1
5.966549226E0,-4.846209288E-2,2.563715279E-1,-7.795696259E-1,8.220728291E-1
5.971567663E0,-2.878880501E-2,2.709919214E-1,-7.209787369E-1,7.707630997E-1
5.976586153E0,-4.645645618E-3,3.090705574E-1,-6.672058105E-1,7.353297118E-1
5.981604590E0,-5.967801809E-2,3.084341884E-1,-6.350021362E-1,7.084637093E-1
5.986623080E0,-8.379465342E-2,3.144423366E-1,-5.932254791E-1,6.766180577E-1
5.991662819E0,-4.568451643E-2,3.654097915E-1,-5.753974915E-1,6.831498107E-1
5.996681361E0,-2.163046598E-2,3.946722746E-1,-5.552120209E-1,6.815383111E-1
6.001699799E0,-2.592837811E-2,4.839024544E-1,-5.877170563E-1,7.617382781E-1
6.006718236E0,3.018760681E-2,5.475828052E-1,-6.322202682E-1,8.369352948E-1
6.011736726E0,7.280057669E-2,6.026388407E-1,-5.834674835E-1,8.419666268E-1
6.016755163E0,1.666935086E-1,6.611377001E-1,-5.564289093E-1,8.800584727E-1
6.021810267E0,2.162256837E-1,6.443862319E-1,-4.769325256E-1,8.303323408E-1
6.026828757E0,2.409708500E-1,6.335652471E-1,-3.306932449E-1,7.542081245E-1
6.031847194E0,2.361904979E-1,5.709359050E-1,-1.871604919E-1,6.455871813E-1
6.036865632E0,1.274786592E-1,5.233042240E-1,-1.037216187E-1,5.485036860E-1
6.041884122E0,-4.119336605E-3,4.473863244E-1,1.783084869E-2,4.477604620E-1
6.046902559E0,-8.962178230E-2,4.074039459E-1,1.224670410E-1,4.347507506E-1
6.051944955E0,-1.535980999E-1,3.575994372E-1,1.671895981E-1,4.235824542E-1
6.056964226E0,-1.891269386E-1,3.215104342E-1,2.286653519E-1,4.375223438E-1
6.061983444E0,-1.967709363E-1,2.966732383E-1,2.781906128E-1,4.518006515E-1
6.067002715E0,-2.010157406E-1,2.420843840E-1,2.918968201E-1,4.292038333E-1
6.072021986E0,-2.380680144E-1,1.884608865E-1,4.253778458E-1,5.226281631E-1
6.077041257E0,-2.504564524E-1,1.497779489E-1,5.325555801E-1,6.072703800E-1
6.082084017E0,-2.762832940E-1,1.022329330E-1,5.344972610E-1,6.103043120E-1
6.087103288E0,-2.963325083E-1,8.909285069E-2,5.509462357E-1,6.318957557E-1
6.092122507E0,-3.341282606E-1,5.102270842E-2,5.148487091E-1,6.158848956E-1
6.097141778E0,-3.914740086E-1,-1.879596710E-2,4.716854095E-1,6.132636573E-1
6.102161049E0,-4.368903637E-1,-5.789169669E-2,5.123519897E-1,6.758174308E-1
6.107180319E0,-4.554137588E-1,-1.044692099E-1,6.079940796E-1,7.667935239E-1
6.112217507E0,-4.969719648E-1,-1.322709918E-1,6.317291260E-1,8.145909634E-1
6.117236778E0,-5.375669003E-1,-1.504416168E-1,6.003656387E-1,8.197864066E-1
6.122255997E0,-5.102136731E-1,-1.442492902E-1,5.474472046E-1,7.621182925E-1
6.127275267E0,-4.608623981E-1,-1.403710544E-1,5.161037445E-1,7.060178879E-1
6.132294538E0,-4.087716341E-1,-1.003788710E-1,5.254440308E-1,6.732470542E-1
6.137313809E0,-3.088373542E-1,-3.640168905E-2,5.156288147E-1,6.021450563E-1
6.142356257E0,-2.406814098E-1,-5.373930931E-2,4.986772537E-1,5.563222607E-1
6.147375528E0,-1.970342398E-1,-5.657660961E-2,5.176572800E-1,5.567696686E-1
6.152394799E0,-1.780685782E-1,-3.566455841E-2,5.390596390E-1,5.688283341E-1
6.157414017E0,-1.286655962E-1,-6.042140722E-2,5.030641556E-1,5.227610608E-1
6.162433288E0,-1.366610527E-1,-4.698985815E-2,4.814786911E-1,5.026987369E-1
6.167452559E0,-2.162955403E-1,-1.630985737E-2,2.828416824E-1,3.564396015E-1
6.172489851E0,-2.864619493E-1,1.323008537E-2,-6.873703003E-2,2.948902557E-1
6.177509122E0,-2.422548831E-1,9.296494722E-2,-4.487123489E-1,5.183364562E-1
6.182528392E0,-1.053464413E-1,1.279951334E-1,-6.944198608E-1,7.139324688E-1
6.187547663E0,6.487470865E-2,1.470718384E-1,-6.840362549E-1,7.026695180E-1
6.192566882E0,1.491684914E-1,1.024085879E-1,-4.968585968E-1,5.287789925E-1
6.197586153E0,3.155007958E-1,4.878091812E-2,-4.130220413E-1,5.220225443E-1
6.202611778E0,2.872169614E-1,-6.969380379E-2,-4.479885101E-2,2.989276606E-1
6.207631049E0,1.555930376E-1,-1.865721643E-1,2.964706421E-1,3.832925873E-1
6.212650319E0,3.494161367E-2,-3.643932343E-1,3.524894714E-1,5.081851759E-1
6.217669538E0,-9.869644046E-2,-5.631797314E-1,5.854215622E-1,8.183097229E-1
6.222688809E0,-2.572970986E-1,-7.552201748E-1,8.587398529E-1,1.172174665E0
6.227708080E0,-4.031362534E-1,-9.106215239E-1,1.110283852E0,1.491469286E0
6.232748392E0,-4.980235696E-1,-9.705270529E-1,1.354487419E0,1.739133809E0
6.237767663E0,-5.714768171E-1,-9.547408223E-1,1.368914604E0,1.764098349E0
6.242786934E0,-5.908201933E-1,-8.676494360E-1,1.158641815E0,1.563436887E0
6.247806153E0,-6.164495945E-1,-7.327513695E-1,8.627052307E-1,1.288873534E0
6.252825424E0,-5.628346801E-1,-5.948480964E-1,5.338315964E-1,9.775496448E-1
6.257844694E0,-4.757717252E-1,-4.030898213E-1,3.203744888E-1,7.010563113E-1
6.262881153E0,-4.030886889E-1,-2.547137737E-1,1.479673386E-1,4.992533734E-1
6.267900424E0,-2.633903027E-1,-8.453798294E-2,-8.874130249E-2,2.905101390E-1
6.272919694E0,-1.687227488E-1,3.873884678E-2,-1.241636276E-1,2.130367823E-1
6.277938913E0,-8.038145304E-2,1.277146935E-1,-1.834936142E-1,2.375755193E-1
6.282958184E0,5.203977227E-2,1.493559480E-1,-2.882604599E-1,3.287999845E-1
6.287977455E0,1.612402797E-1,6.990468502E-2,-1.787872314E-1,2.506989567E-1
6.293003653E0,2.958019674E-1,-4.702126980E-2,2.705287933E-2,3.007352025E-1
6.298022924E0,4.132857919E-1,-1.898742020E-1,2.952127457E-1,5.422249750E-1
6.303042194E0,5.547269583E-1,-4.016639888E-1,5.800380707E-1,8.974965858E-1
6.308061413E0,7.250828147E-1,-5.947524905E-1,9.122982025E-1,1.308343848E0
6.313080684E0,8.187910318E-1,-7.538918853E-1,1.264937401E0,1.684885265E0
6.318099955E0,8.551172614E-1,-9.543920755E-1,1.506996155E0,1.978162576E0
6.323142715E0,9.056980610E-1,-1.178018451E0,1.698479652E0,2.256734273E0
6.328161986E0,8.609679341E-1,-1.353914022E0,1.992585182E0,2.558269859E0
6.333181257E0,7.113163471E-1,-1.511162877E0,2.145169258E0,2.718701038E0
6.338200476E0,5.044893622E-1,-1.647989869E0,2.197125435E0,2.792443429E0
6.343219747E0,2.735139132E-1,-1.731219292E0,2.136665344E0,2.763560908E0
6.348239017E0,9.929162264E-2,-1.689191580E0,1.959184647E0,2.588750953E0
6.353272455E0,-1.410552859E-2,-1.622329116E0,1.640940666E0,2.307560833E0
6.358291726E0,-9.387522936E-2,-1.470148325E0,1.234766960E0,1.922185762E0
6.363310997E0,-7.130733132E-2,-1.270249128E0,8.053731918E-1,1.505736883E0
6.368330215E0,-3.035360575E-2,-1.043553829E0,4.269342422E-1,1.127917897E0
6.373349486E0,-5.971488357E-2,-8.802199960E-1,-3.519058228E-3,8.822502436E-1
6.378368757E0,-3.758859634E-2,-7.625325918E-1,-3.974380493E-1,8.607124138E-1
6.383406257E0,1.213988662E-2,-5.987632871E-1,-7.190322876E-1,9.357736272E-1
6.388425528E0,2.030590177E-2,-4.599022865E-1,-9.899978638E-1,1.091795866E0
6.393444799E0,8.785867691E-2,-3.310654163E-1,-1.229595184E0,1.276412071E0
6.398464017E0,1.620869935E-1,-2.977357805E-1,-1.413992882E0,1.454061435E0
6.403483288E0,1.883786321E-1,-2.779759765E-1,-1.505043030E0,1.542047883E0
6.408502559E0,2.486245930E-1,-2.811889350E-1,-1.510078430E0,1.556026436E0
6.413543809E0,2.951473892E-1,-3.361140788E-1,-1.424433708E0,1.493015755E0
6.418563080E0,3.088003695E-1,-4.308936000E-1,-1.257781982E0,1.364933140E0
6.423582351E0,2.516758144E-1,-5.665458441E-1,-1.041265488E0,1.211836922E0
6.428601569E0,1.260633767E-1,-7.122707367E-1,-8.299417496E-1,1.100920018E0
6.433620840E0,1.102676988E-2,-8.927596807E-1,-6.141757965E-1,1.083675849E0
6.438640111E0,-9.371584654E-2,-1.044215679E0,-3.771581650E-1,1.114189089E0
6.443680528E0,-1.935223937E-1,-1.145539880E0,-2.073898315E-1,1.180136888E0
6.448699799E0,-2.961132228E-1,-1.228711128E0,-6.165122986E-2,1.265391225E0
6.453719017E0,-3.491611183E-1,-1.301241279E0,5.085945129E-3,1.347281789E0
6.458738288E0,-3.721720576E-1,-1.320404410E0,5.515384674E-2,1.372960959E0
6.463757559E0,-3.868129253E-1,-1.276703835E0,7.225036621E-3,1.334034903E0
6.468776830E0,-3.767644465E-1,-1.196646452E0,-5.482101440E-2,1.255754563E0
6.473818080E0,-3.488622904E-1,-1.080057025E0,-1.788444519E-1,1.149005402E0
6.478837351E0,-3.677949905E-1,-9.647731781E-1,-3.265180588E-1,1.082900957E0
6.483856622E0,-4.336186647E-1,-8.429142237E-1,-6.318378448E-1,1.139187692E0
6.488875840E0,-3.572563231E-1,-7.037075758E-1,-9.846372604E-1,1.261882311E0
6.493895111E0,-3.059316576E-1,-5.662133098E-1,-1.133663177E0,1.303604193E0
6.498914382E0,-2.790367305E-1,-5.017284751E-1,-1.139030457E0,1.275532571E0
6.503942559E0,-2.310700566E-1,-4.404224157E-1,-1.276087761E0,1.369585795E0
6.508961830E0,-1.237556934E-1,-3.867537379E-1,-1.334154129E0,1.394582793E0
6.513981101E0,-6.430438161E-2,-2.855348885E-1,-1.387519836E0,1.418053780E0
6.519000319E0,1.908308268E-2,-2.466235757E-1,-1.417067528E0,1.438494953E0
6.524019590E0,3.810802102E-2,-3.127941489E-1,-1.336716652E0,1.373354946E0
6.529038861E0,7.444243133E-2,-3.744883835E-1,-1.156132698E0,1.217549194E0
6.534087403E0,8.282364905E-2,-4.489885867E-1,-9.567480087E-1,1.060102476E0
6.539106674E0,7.282558084E-2,-5.486536622E-1,-7.241992950E-1,9.114762889E-1
6.544125944E0,-6.000667810E-3,-6.856710315E-1,-5.661649704E-1,8.892263745E-1
6.549145163E0,-7.484102249E-2,-7.768841982E-1,-4.346513748E-1,8.933487861E-1
6.554164434E0,-1.360598505E-1,-8.443001509E-1,-2.338972092E-1,8.866019017E-1
6.559183705E0,-1.492590606E-1,-9.194193482E-1,-6.683921814E-2,9.338509978E-1
6.564213340E0,-1.743610948E-1,-9.978492260E-1,8.094501495E-2,1.016197306E0
6.569233236E0,-1.803252846E-1,-1.025118113E0,2.047262192E-1,1.060800253E0
6.574253080E0,-2.293345928E-1,-1.058899283E0,2.279825211E-1,1.107175721E0
6.579272924E0,-3.238371313E-1,-1.024804831E0,2.584857941E-1,1.105400531E0
6.584292767E0,-2.655161321E-1,-9.875175953E-1,1.096172333E-1,1.028448227E0
6.589312663E0,-1.049744785E-1,-9.372227788E-1,3.280258179E-2,9.436536375E-1
6.594347142E0,1.126221865E-1,-7.663952112E-1,9.493541718E-2,7.804217514E-1
6.599367038E0,2.390720248E-1,-6.643529534E-1,1.020584106E-1,7.133976444E-1
6.604386882E0,1.927240491E-1,-5.587591529E-1,-6.301498413E-2,5.944116741E-1
6.609406726E0,2.678239942E-1,-4.083699584E-1,-3.857431412E-1,6.223290815E-1
6.614426569E0,3.473599553E-1,-2.914556265E-1,-5.525608063E-1,7.147928129E-1
6.619446465E0,3.312013149E-1,-2.028166354E-1,-5.995798111E-1,7.143702461E-1
6.624483965E0,3.772582412E-1,-1.473119259E-1,-6.417837143E-1,7.588879496E-1
6.629503861E0,4.619064331E-1,-2.903145552E-2,-6.672325134E-1,8.120342390E-1
6.634523705E0,5.351448655E-1,4.655551910E-2,-6.520214081E-1,8.447954546E-1
6.639543549E0,5.680537820E-1,9.162735939E-2,-7.062606812E-1,9.109801436E-1
6.644563392E0,5.822259188E-1,1.420010924E-1,-7.198019028E-1,9.366248502E-1
6.649583288E0,6.110376716E-1,2.000050545E-1,-7.357549667E-1,9.770897753E-1
6.654615163E0,5.729092360E-1,1.838685274E-1,-6.512098312E-1,8.866266815E-1
6.659635059E0,4.818751216E-1,1.800800562E-1,-6.888046265E-1,8.597001064E-1
6.664654903E0,4.812031984E-1,2.004792690E-1,-7.431030273E-1,9.077172273E-1
6.669674747E0,4.799085259E-1,1.849626303E-1,-7.446870804E-1,9.050316103E-1
6.674694590E0,4.541755319E-1,1.864200830E-1,-7.008132935E-1,8.556676536E-1
6.679714486E0,4.375730455E-1,1.831952333E-1,-7.096290588E-1,8.535830743E-1
6.684757351E0,4.682311416E-1,2.040597796E-1,-6.729736328E-1,8.448516474E-1
6.689777247E0,4.770201743E-1,1.701197028E-1,-6.579055786E-1,8.302582191E-1
6.694797090E0,3.853622675E-1,8.634912968E-2,-6.141691208E-1,7.301807710E-1
6.699816934E0,4.467807412E-1,1.295912266E-1,-5.657052994E-1,7.324134095E-1
6.704836778E0,4.916537404E-1,1.080712080E-1,-4.311685562E-1,6.628039758E-1
6.709856674E0,5.650840998E-1,7.216733694E-2,-4.212055206E-1,7.084788317E-1
6.714894069E0,4.736625552E-1,8.645170927E-2,-4.351787567E-1,6.490074457E-1
6.719913965E0,4.736878872E-1,-4.506826401E-3,-3.893318176E-1,6.131719092E-1
6.724933809E0,5.025777817E-1,1.672798395E-2,-3.530941010E-1,6.144425898E-1
6.729953653E0,4.644937515E-1,2.555191517E-2,-3.503713608E-1,5.823808342E-1
6.734973497E0,4.886743426E-1,6.753998995E-2,-3.715581894E-1,6.175918972E-1
6.739993392E0,5.032109022E-1,8.762401342E-2,-4.046630859E-1,6.516528163E-1
6.745017299E0,4.889790118E-1,1.171444058E-1,-5.047092438E-1,7.124287379E-1
6.750037194E0,4.815818667E-1,1.371068954E-1,-5.232810974E-1,7.242530649E-1
6.755057038E0,4.574987292E-1,1.167407036E-1,-5.083570480E-1,6.938013890E-1
6.760076882E0,4.496721327E-1,1.035753489E-1,-5.436840057E-1,7.131095133E-1
6.765096726E0,4.658733308E-1,1.021817327E-1,-3.660240173E-1,6.012093214E-1
6.770116622E0,2.502698898E-1,9.777784348E-3,-3.417062759E-1,4.236670885E-1
6.775152455E0,3.002723455E-1,-1.067280769E-2,-4.250802994E-1,5.205484139E-1
6.780172351E0,4.196351469E-1,-1.201027632E-2,-3.289108276E-1,5.333106372E-1
6.785192194E0,3.190978765E-1,-1.599919796E-2,-2.639551163E-1,4.144294060E-1
6.790212038E0,2.282879055E-1,-3.501623869E-2,-2.397155762E-1,3.328739434E-1
6.795231882E0,2.091786116E-1,-2.799844742E-2,-2.418031693E-1,3.209491818E-1
6.800251778E0,1.374430656E-1,1.001256704E-2,-3.730764389E-1,3.977145673E-1
6.805289017E0,6.311136484E-2,1.475381851E-2,-4.754858017E-1,4.798827640E-1
6.810308913E0,9.904086590E-3,4.862928391E-2,-5.777826309E-1,5.799100506E-1
6.815328757E0,1.139838994E-2,1.141520739E-1,-6.201658249E-1,6.306871408E-1
6.820348601E0,2.213013172E-2,1.397678256E-1,-6.673221588E-1,6.821610158E-1
6.825368444E0,6.108796597E-2,1.568338871E-1,-6.570501328E-1,6.782650549E-1
6.830388340E0,1.500414610E-1,1.700375080E-1,-5.750627518E-1,6.181604667E-1
6.835421622E0,2.506689727E-1,2.150635719E-1,-5.099630356E-1,6.075768030E-1
6.840441517E0,2.720481157E-1,1.888656616E-1,-4.354009628E-1,5.470415102E-1
6.845461361E0,2.431839406E-1,1.200998425E-1,-3.154983521E-1,4.160548177E-1
6.850481205E0,1.079542190E-1,2.270227671E-2,-1.777257919E-1,2.091792626E-1
6.855501049E0,-1.016117632E-2,-5.492725968E-2,-8.146476746E-2,9.877632154E-2
6.860520944E0,-9.220428765E-2,-1.321107745E-1,8.290958405E-2,1.811874348E-1
6.865555788E0,-1.362259686E-1,-2.114697397E-1,2.222013474E-1,3.356343309E-1
6.870575684E0,-1.400502324E-1,-2.859351933E-1,3.318710327E-1,4.599036690E-1
6.875595528E0,-6.828437746E-2,-2.914983332E-1,4.596757889E-1,5.485762165E-1
6.880615372E0,4.076549411E-2,-2.834302783E-1,5.650777817E-1,6.334883168E-1
6.885635215E0,8.489678800E-2,-2.995362878E-1,6.434898376E-1,7.148486717E-1
6.890655111E0,1.075752974E-1,-3.329104781E-1,7.070322037E-1,7.888576349E-1
6.895688444E0,1.162963063E-1,-3.215854764E-1,8.413381577E-1,9.081805685E-1
6.900708340E0,9.720502794E-2,-3.374151289E-1,9.674272537E-1,1.029180877E0
6.905728184E0,7.204642892E-2,-3.232036829E-1,9.737148285E-1,1.028480372E0
6.910748028E0,7.863345742E-2,-2.719267905E-1,9.253358841E-1,9.676641455E-1
6.915767872E0,8.819571137E-2,-2.550554872E-1,8.726291656E-1,9.134076011E-1
6.920787767E0,9.094613791E-2,-2.511361241E-1,8.465261459E-1,8.876638263E-1
6.925835840E0,1.272778213E-1,-1.958438754E-1,8.064203262E-1,8.395642977E-1
6.930855736E0,1.731176674E-1,-1.203444898E-1,7.405452728E-1,7.699739113E-1
6.935875580E0,2.162495255E-1,-7.709538937E-2,6.253700256E-1,6.661795744E-1
6.940895424E0,2.849431336E-1,-1.351597905E-2,5.729579926E-1,6.400438519E-1
6.945915267E0,3.767406046E-1,8.224642277E-2,4.735069275E-1,6.106609269E-1
6.950935163E0,4.035597742E-1,1.532774568E-1,3.986549377E-1,5.876055050E-1
6.955962819E0,3.659726381E-1,1.548076272E-1,3.101816177E-1,5.040972221E-1
6.960982715E0,2.908031642E-1,1.016402245E-1,2.699604034E-1,4.096044860E-1
6.966002559E0,2.260190547E-1,7.494324446E-2,3.060960770E-1,3.878091171E-1
6.971022403E0,1.669242084E-1,5.349516869E-3,3.704509735E-1,4.063572719E-1
6.976042247E0,1.733907759E-1,-6.640186906E-2,4.461450577E-1,4.832380178E-1
6.981062142E0,1.857897639E-1,-1.096180081E-1,5.259609222E-1,5.684794067E-1
6.986089226E0,1.615579426E-1,-1.628651917E-1,5.932483673E-1,6.360579099E-1
6.991109122E0,1.081257761E-1,-1.574683487E-1,6.172485352E-1,6.461294131E-1
6.996128965E0,1.324290037E-2,-7.704630494E-2,4.961843491E-1,5.023051023E-1
7.001148809E0,-2.848279476E-2,9.240537882E-2,2.383918762E-1,2.572561181E-1
7.006168653E0,-4.120767117E-3,2.631933093E-1,-1.360130310E-1,2.962891213E-1
7.011188549E0,9.896162152E-2,3.939087987E-1,-5.192146301E-1,6.591975245E-1
7.016222924E0,3.388191164E-1,5.188974738E-1,-7.710227966E-1,9.892063156E-1
7.021242819E0,6.479521990E-1,6.076133847E-1,-7.476511002E-1,1.161041879E0
7.026262663E0,8.697193861E-1,6.221051812E-1,-5.725517273E-1,1.212947710E0
7.031282507E0,9.815527201E-1,5.817643404E-1,-3.942718506E-1,1.207205775E0
7.036302351E0,9.565668106E-1,4.535875916E-1,-2.104673386E-1,1.079378649E0
7.041322247E0,8.653354049E-1,2.309272289E-1,1.955032349E-4,8.956186612E-1
7.046357299E0,7.163897157E-1,-3.107881546E-2,1.994791031E-1,7.442929733E-1
7.051377194E0,5.345067382E-1,-3.066106141E-1,3.708715439E-1,7.192031868E-1
7.056397038E0,3.841098547E-1,-5.221944451E-1,5.051212311E-1,8.218119475E-1
7.061416882E0,3.528684378E-1,-6.903016567E-1,5.906677246E-1,9.746388421E-1
7.066436726E0,3.805649877E-1,-7.924817801E-1,6.421756744E-1,1.088690350E0
7.071456622E0,4.496123791E-1,-8.750036955E-1,6.789846420E-1,1.195325438E0
7.076520476E0,5.118415952E-1,-9.120539427E-1,7.558746338E-1,1.290414924E0
7.081540892E0,5.336185694E-1,-9.781134129E-1,8.155384064E-1,1.380781488E0
7.086561257E0,5.527838469E-1,-1.023562789E0,8.462810516E-1,1.438555659E0
7.091581674E0,5.261864066E-1,-1.039558530E0,9.148960114E-1,1.481414454E0
7.096602090E0,4.964385629E-1,-1.002807856E0,9.593267441E-1,1.473900486E0
7.101622507E0,6.418955326E-1,-9.493372440E-1,9.892635345E-1,1.513906674E0
7.106626934E0,7.928128242E-1,-8.815626502E-1,8.884038925E-1,1.481541885E0
7.111647351E0,9.045584798E-1,-7.706906199E-1,7.765750885E-1,1.419598163E0
7.116667715E0,9.495892525E-1,-6.761476994E-1,5.706853867E-1,1.297912659E0
7.121688132E0,9.480448961E-1,-5.779358149E-1,3.522233963E-1,1.164843445E0
7.126708549E0,8.726532459E-1,-4.779743552E-1,1.782541275E-1,1.010820313E0
7.131728965E0,6.910156012E-1,-4.328973591E-1,-1.813507080E-2,8.156172910E-1
7.136772351E0,4.348150790E-1,-4.035891891E-1,-2.177791595E-1,6.319621419E-1
7.141792767E0,2.420092523E-1,-3.969470561E-1,-3.636188507E-1,5.902153100E-1
7.146813184E0,6.650444865E-2,-3.984371126E-1,-4.394569397E-1,5.969065054E-1
7.151833549E0,-1.403102279E-2,-3.777027726E-1,-4.743251801E-1,6.064986649E-1
7.156853965E0,-2.266642451E-2,-3.259137869E-1,-5.160217285E-1,6.107470733E-1
7.161874382E0,1.304131746E-2,-3.504057825E-1,-5.074453354E-1,6.168103896E-1
7.166896361E0,3.763347864E-2,-3.989872336E-1,-4.489727020E-1,6.018168978E-1
7.171916778E0,5.073213577E-2,-4.290784597E-1,-4.288902283E-1,6.087929879E-1
7.176937142E0,2.593490481E-2,-4.766780138E-1,-4.207363129E-1,6.363282118E-1
7.181957559E0,-1.754523814E-2,-4.846249223E-1,-4.457902908E-1,6.587094459E-1
7.186977976E0,-1.197779849E-1,-5.552363396E-1,-5.014200211E-1,7.576649629E-1
7.191998392E0,-2.542285025E-1,-6.360284090E-1,-4.970836639E-1,8.463193472E-1
7.197025840E0,-3.776657581E-1,-6.768720150E-1,-5.449457169E-1,9.474982765E-1
7.202046257E0,-3.685043454E-1,-7.233210802E-1,-5.495595932E-1,9.803084128E-1
7.207066622E0,-3.486379385E-1,-7.467719316E-1,-5.564308167E-1,9.944003136E-1
7.212087038E0,-2.845110595E-1,-7.352804542E-1,-5.893163681E-1,9.843158390E-1
7.217107455E0,-1.428432912E-1,-6.839187145E-1,-6.005172729E-1,9.212871480E-1
7.222127872E0,-5.683110654E-2,-6.642333865E-1,-6.900005341E-1,9.594459356E-1
7.227161153E0,4.530631006E-2,-6.088891625E-1,-8.143796921E-1,1.017847217E0
7.232181569E0,1.374522448E-1,-5.152435303E-1,-8.950023651E-1,1.041824481E0
7.237201934E0,1.819886416E-1,-4.734347165E-1,-1.013032913E0,1.132914816E0
7.242222351E0,1.636928618E-1,-4.718657732E-1,-1.145410538E0,1.249567109E0
7.247242767E0,1.528474689E-1,-4.562797546E-1,-1.217914581E0,1.309530256E0
7.252263184E0,1.090805829E-1,-4.911821187E-1,-1.189964294E0,1.291964964E0
7.257295059E0,9.219634533E-2,-5.572124124E-1,-1.162176132E0,1.292145193E0
7.262315476E0,7.323893905E-2,-6.376938820E-1,-1.108222961E0,1.280693391E0
7.267335840E0,6.416580081E-2,-6.944844723E-1,-9.754915237E-1,1.199170399E0
7.272356257E0,2.640335262E-2,-7.734367251E-1,-8.119010925E-1,1.121643833E0
7.277376674E0,-4.229301214E-2,-8.919121623E-1,-6.748819351E-1,1.119268346E0
7.282397090E0,-7.985579967E-2,-1.033158660E0,-4.878301620E-1,1.145326169E0
7.287425059E0,-1.131594330E-1,-1.140040755E0,-3.608350754E-1,1.201124445E0
7.292445476E0,-1.590650678E-1,-1.212735415E0,-3.392667770E-1,1.269303284E0
7.297465840E0,-1.315946579E-1,-1.244250655E0,-2.555065155E-1,1.277012305E0
7.302486257E0,-1.412061751E-1,-1.323326230E0,-1.263618469E-1,1.336824151E0
7.307506674E0,-1.712709367E-1,-1.426455021E0,-2.364063263E-2,1.436894756E0
7.312527090E0,-1.451509893E-1,-1.489064097E0,1.794958115E-1,1.506850836E0
7.317561465E0,-1.796517372E-1,-1.499578595E0,2.915201187E-1,1.538179017E0
7.322581882E0,-1.308437437E-1,-1.534518957E0,3.723497391E-1,1.584459795E0
7.327602247E0,3.231221437E-2,-1.629561067E0,4.579000473E-1,1.692981336E0
7.332622663E0,2.128121555E-1,-1.620245576E0,7.275924683E-1,1.788819594E0
7.337643080E0,3.060027361E-1,-1.619468689E0,9.658613205E-1,1.910289140E0
7.342663497E0,2.403607070E-1,-1.651075006E0,1.031575203E0,1.961624159E0
7.347697663E0,1.480382383E-1,-1.691028833E0,1.054128647E0,1.998169422E0
7.352718080E0,5.330559611E-2,-1.705986261E0,1.090988159E0,2.025706241E0
7.357738444E0,-4.389606416E-2,-1.672193170E0,1.041658401E0,1.970585975E0
7.362758861E0,-1.939179897E-1,-1.611339808E0,9.588880539E-1,1.885069352E0
7.367779278E0,-2.822289169E-1,-1.551952362E0,7.900905609E-1,1.764214383E0
7.372799694E0,-2.785877287E-1,-1.410036325E0,5.856342316E-1,1.552024811E0
7.377845528E0,-2.437137365E-1,-1.226246715E0,3.407983780E-1,1.295847570E0
7.382865944E0,-2.451388687E-1,-1.028932095E0,1.178379059E-1,1.064274444E0
7.387886309E0,-2.572940290E-1,-8.156464100E-1,-1.000022888E-1,8.610921793E-1
7.392906726E0,-2.567007840E-1,-6.627178192E-1,-3.175144196E-1,7.783993879E-1
7.397927142E0,-2.843734622E-1,-5.506602526E-1,-4.964237213E-1,7.940601305E-1
7.402947559E0,-2.735975981E-1,-4.335991144E-1,-6.702775955E-1,8.438814447E-1
7.407968705E0,-2.746063173E-1,-3.496664762E-1,-7.649250031E-1,8.847516795E-1
7.412989122E0,-3.112138808E-1,-2.891379297E-1,-8.354997635E-1,9.372911377E-1
7.418009486E0,-2.967610955E-1,-2.566699684E-1,-8.461570740E-1,9.326995306E-1
7.423029903E0,-2.620500028E-1,-2.544578612E-1,-8.017721176E-1,8.810547859E-1
7.428050319E0,-2.090777606E-1,-2.774653733E-1,-7.598485947E-1,8.355060922E-1
7.433070736E0,-9.442901611E-2,-2.542077899E-1,-6.677455902E-1,7.207097979E-1
7.438097767E0,2.013853192E-2,-2.755561769E-1,-5.231513977E-1,5.916283901E-1
7.443118184E0,1.566564441E-1,-3.274202943E-1,-3.596286774E-1,5.109579984E-1
7.448138549E0,2.677146494E-1,-3.670159876E-1,-1.532783508E-1,4.794435541E-1
7.453158965E0,3.630147874E-1,-4.138651788E-1,4.561233521E-2,5.523989566E-1
7.458179382E0,4.524217844E-1,-4.822140336E-1,2.059354782E-1,6.925498295E-1
7.463199799E0,4.424662292E-1,-5.080133080E-1,3.158035278E-1,7.440334356E-1
7.468236101E0,3.736727238E-1,-5.683002472E-1,4.135789871E-1,7.960176217E-1
7.473256517E0,3.295825720E-1,-6.102707982E-1,4.633951187E-1,8.341403689E-1
7.478276882E0,3.024592698E-1,-6.078504324E-1,4.677286148E-1,8.244597110E-1
7.483297299E0,3.111737967E-1,-6.068309546E-1,4.362239838E-1,8.095457388E-1
7.488317715E0,3.698185086E-1,-5.928496718E-1,3.880758286E-1,7.992742404E-1
7.493338132E0,4.589972198E-1,-5.202663541E-1,3.328733444E-1,7.695194542E-1
7.498364851E0,5.500174761E-1,-4.654084444E-1,2.251586914E-1,7.548646769E-1
7.503385267E0,5.642076731E-1,-3.968745768E-1,6.737136841E-2,6.930935214E-1
7.508405632E0,5.519580245E-1,-3.120324612E-1,-9.497833252E-2,6.411261976E-1
7.513426049E0,5.230243206E-1,-3.251519203E-1,-2.308111191E-1,6.576868434E-1
7.518446465E0,3.794856966E-1,-3.305675685E-1,-3.306064606E-1,6.021502662E-1
7.523466882E0,2.412559986E-1,-3.235462904E-1,-3.968067169E-1,5.659878351E-1
7.528503080E0,2.521969676E-1,-3.014677763E-1,-4.916801453E-1,6.294723948E-1
7.533523497E0,3.500840664E-1,-2.593111992E-1,-5.434360504E-1,6.965083578E-1
7.538543861E0,3.651560247E-1,-2.136090100E-1,-5.856418610E-1,7.224570028E-1
7.543564278E0,3.261660337E-1,-2.145496756E-1,-6.518058777E-1,7.597807230E-1
7.548584694E0,2.925157547E-1,-2.404890358E-1,-6.198701859E-1,7.263879751E-1
7.553605111E0,2.687634826E-1,-2.941026390E-1,-5.401763916E-1,6.712083923E-1
7.558633288E0,2.235359848E-1,-3.637158275E-1,-4.342966080E-1,6.089918582E-1
7.563653705E0,1.829448640E-1,-4.233011007E-1,-2.854938507E-1,5.423646227E-1
7.568674069E0,1.304507554E-1,-5.163072348E-1,-1.751565933E-1,5.605982451E-1
7.573694486E0,1.062128842E-1,-5.403476357E-1,-4.816913605E-2,5.527902042E-1
7.578714903E0,8.393034339E-2,-5.504294634E-1,3.084373474E-2,5.576452570E-1
7.583735319E0,3.691032529E-2,-6.090939045E-1,5.718326569E-2,6.128847220E-1
7.588786934E0,2.744254470E-2,-6.230962873E-1,9.790897369E-2,6.313384541E-1
7.593807715E0,6.755369902E-2,-6.160696745E-1,1.170959473E-1,6.307272049E-1
7.598828497E0,7.355532050E-2,-6.073602438E-1,1.387014389E-1,6.273236326E-1
7.603849226E0,9.813469648E-2,-6.207951903E-1,8.137512207E-2,6.337499487E-1
7.608870007E0,1.048411131E-1,-5.540295243E-1,2.160167694E-2,5.642756465E-1
7.613890788E0,1.136723459E-1,-5.093760490E-1,-7.329177856E-2,5.270266088E-1
7.618908236E0,1.010164618E-1,-4.911351204E-1,-1.436405182E-1,5.215847299E-1
7.623929017E0,9.085795283E-2,-5.156161785E-1,-1.468963623E-1,5.437773004E-1
7.628949799E0,8.601671457E-2,-5.139309764E-1,-1.691370010E-1,5.478423576E-1
7.633970528E0,2.246236801E-2,-4.885096550E-1,-1.436996460E-1,5.097017062E-1
7.638991309E0,-1.379343867E-2,-4.705886841E-1,-1.493692398E-1,4.939181494E-1
7.644012090E0,-3.946077824E-2,-4.695963264E-1,-2.072706223E-1,5.148193602E-1
7.649048601E0,-1.093145758E-1,-4.757447839E-1,-2.932176590E-1,5.694377678E-1
7.654069382E0,-2.090039551E-1,-4.486063123E-1,-3.689603806E-1,6.173022267E-1
7.659090163E0,-2.673316300E-1,-3.882577121E-1,-4.464578629E-1,6.492571715E-1
7.664110892E0,-2.894457579E-1,-3.089115620E-1,-5.803489685E-1,7.183384475E-1
7.669131674E0,-3.139645457E-1,-2.462588996E-1,-6.965160370E-1,8.027152492E-1
7.674152455E0,-3.389529586E-1,-1.500731111E-1,-7.879772186E-1,8.708152180E-1
7.679171986E0,-3.623563051E-1,-9.179031849E-2,-7.979211807E-1,8.811389023E-1
7.684192767E0,-3.768982887E-1,-6.872674823E-2,-7.935485840E-1,8.811895603E-1
7.689213549E0,-3.828502297E-1,9.461164474E-3,-7.725858688E-1,8.622950404E-1
7.694234278E0,-3.448122144E-1,3.356292844E-2,-7.565717697E-1,8.321194482E-1
7.699255059E0,-3.081720173E-1,2.745836973E-2,-6.456813812E-1,7.159807263E-1
7.704275840E0,-2.774112225E-1,5.335479975E-3,-4.882059097E-1,5.615429316E-1
7.709306205E0,-2.521218956E-1,-6.133764982E-2,-3.059148788E-1,4.011379695E-1
7.714326986E0,-2.770721614E-1,-9.876102209E-2,-1.489009857E-1,3.296880733E-1
7.719347767E0,-3.112751842E-1,-1.717232764E-1,-4.544544220E-2,3.583942133E-1
7.724368497E0,-2.852887511E-1,-2.087681890E-1,1.914119720E-2,3.540341984E-1
7.729389278E0,-2.874774337E-1,-2.458660752E-1,9.506893158E-2,3.900403871E-1
7.734410059E0,-2.912012637E-1,-2.475464195E-1,1.774911880E-1,4.214030465E-1
7.739437507E0,-2.655704021E-1,-2.449291795E-1,1.760787964E-1,4.018976039E-1
7.744458288E0,-2.798604369E-1,-2.213218212E-1,1.461687088E-1,3.855781427E-1
7.749479069E0,-2.860779166E-1,-2.053469419E-1,1.069927216E-1,3.680426380E-1
7.754499799E0,-3.272626996E-1,-2.181583941E-1,9.188556671E-2,4.039021129E-1
7.759520580E0,-3.961628973E-1,-1.576733291E-1,6.740856171E-2,4.316825618E-1
7.764541361E0,-4.498277903E-1,-1.645586491E-1,1.700878143E-2,4.792847677E-1
7.769573340E0,-4.838487506E-1,-1.501971185E-1,-5.672264099E-2,5.097903940E-1
7.774594122E0,-5.247703791E-1,-9.085497260E-2,-1.369638443E-1,5.499069662E-1
7.779614903E0,-5.085032582E-1,-3.668782115E-2,-2.094078064E-1,5.511562294E-1
7.784635632E0,-5.304350853E-1,7.697105408E-3,-2.693758011E-1,5.949655010E-1
7.789656413E0,-5.524952412E-1,5.214196444E-2,-3.312311172E-1,6.462846347E-1
7.794677194E0,-5.698865652E-1,9.411761165E-2,-3.878259659E-1,6.957282529E-1
7.799705997E0,-6.086179018E-1,9.578981996E-2,-4.582195282E-1,7.678258761E-1
7.804726726E0,-6.616499424E-1,1.265442967E-1,-4.876594543E-1,8.316284319E-1
7.809747559E0,-7.547872663E-1,1.032037735E-1,-5.240144730E-1,9.246329023E-1
7.814768288E0,-7.761643529E-1,4.512640834E-2,-5.149564743E-1,9.325490153E-1
7.819789069E0,-7.904759645E-1,1.157554984E-2,-4.632215500E-1,9.162753125E-1
7.824809851E0,-7.240790129E-1,2.780258656E-4,-4.119405746E-1,8.330579399E-1
7.829851726E0,-6.559915543E-1,-3.201526403E-2,-2.993335724E-1,7.217689963E-1
7.834872507E0,-5.479372740E-1,-3.326445818E-2,-1.757850647E-1,5.764045189E-1
7.839893288E0,-5.093761086E-1,-8.453595638E-2,-1.007785797E-1,5.260861813E-1
7.844914017E0,-5.209314227E-1,-1.476142108E-1,-7.626724243E-2,5.467871567E-1
7.849934799E0,-5.370058417E-1,-1.721973717E-1,9.801864624E-3,5.640241887E-1
7.854955580E0,-5.862905383E-1,-2.231028080E-1,4.528808594E-2,6.289375716E-1
7.859974903E0,-6.329268217E-1,-2.552366555E-1,1.042661667E-1,6.903720341E-1
7.864995684E0,-6.008739471E-1,-2.781484127E-1,1.699056625E-1,6.835817245E-1
7.870016465E0,-5.644235015E-1,-2.560775280E-1,1.566209793E-1,6.392806274E-1
7.875037194E0,-4.999983311E-1,-2.582979798E-1,1.149616241E-1,5.743973820E-1
7.880057976E0,-4.481081665E-1,-2.253782898E-1,1.045551300E-1,5.123749385E-1
7.885078757E0,-4.016205668E-1,-2.188051790E-1,1.179933548E-1,4.723316820E-1
7.890112559E0,-4.078552127E-1,-1.912655979E-1,1.242084503E-1,4.672859324E-1
7.895133340E0,-4.118239582E-1,-2.185854316E-1,9.236621857E-2,4.752999913E-1
7.900154122E0,-3.969279528E-1,-2.100883722E-1,9.405231476E-2,4.588406714E-1
7.905174851E0,-4.346398115E-1,-1.974263489E-1,1.551389694E-1,5.019532138E-1
7.910195632E0,-4.650361836E-1,-2.042803466E-1,1.159629822E-1,5.209957057E-1
7.915216413E0,-4.072522521E-1,-1.664001793E-1,8.425903320E-2,4.479319158E-1
7.920240788E0,-3.902416527E-1,-1.364275217E-1,-6.551742554E-3,4.134536752E-1
7.925261569E0,-3.497371078E-1,-1.067445278E-1,-1.037273407E-1,3.800918310E-1
7.930282351E0,-3.689621687E-1,-6.780350208E-2,-1.858396530E-1,4.186487471E-1
7.935303080E0,-3.927856088E-1,-5.267551541E-2,-2.363967896E-1,4.614527999E-1
7.940323861E0,-3.856971264E-1,-1.370111108E-2,-3.102931976E-1,4.952089077E-1
7.945344642E0,-3.930826187E-1,4.912579060E-2,-3.835878372E-1,5.514226304E-1
7.950377663E0,-3.581305742E-1,1.046691835E-1,-4.253940582E-1,5.658385379E-1
7.955398444E0,-3.072417378E-1,1.224705279E-1,-4.454936981E-1,5.548523684E-1
7.960419226E0,-2.524391413E-1,1.147187948E-1,-4.203109741E-1,5.035347425E-1
7.965439955E0,-2.126631141E-1,8.849468827E-2,-3.573417664E-1,4.251470897E-1
7.970460736E0,-2.093732655E-1,1.033369303E-1,-2.949037552E-1,3.761434704E-1
7.975481517E0,-1.921692342E-1,5.416935682E-2,-2.187347412E-1,2.961557374E-1
7.980511778E0,-1.493046880E-1,2.952852845E-2,-1.788368225E-1,2.348327765E-1
7.985532559E0,-1.024481952E-1,-4.007726908E-3,-1.772851944E-1,2.047968133E-1
7.990553340E0,-6.574738026E-2,-4.160934687E-2,-1.424942017E-1,1.623534825E-1
7.995574069E0,-8.130595088E-3,-2.633577585E-2,-9.611892700E-2,9.999263870E-2
8.000594851E0,4.678815603E-2,-3.227278590E-2,-3.588676453E-2,6.721996819E-2
8.005615632E0,9.918639064E-2,-6.399515271E-2,2.382946014E-2,1.204207741E-1
8.010651674E0,1.275870800E-1,-7.181173563E-2,8.305263519E-2,1.683244741E-1
8.015672455E0,1.063990593E-1,-8.185863495E-2,6.100177765E-2,1.474544432E-1
8.020693236E0,5.986911058E-2,-8.697426319E-2,4.862213135E-2,1.162451914E-1
8.025713965E0,5.932244658E-2,-8.688908815E-2,6.866455078E-4,1.052109205E-1
