"Time (s)","Gyroscope x (rad/s)","Gyroscope y (rad/s)","Gyroscope z (rad/s)","Absolute (rad/s)"
6.690277000E-2,2.410089783E-2,3.235645220E-2,-3.195699072E-3,4.047228394E-2
6.939558300E-2,2.410089783E-2,2.809552103E-2,-6.391398143E-3,3.756409920E-2
7.188844700E-2,1.983996481E-2,2.489982173E-2,-4.260932095E-3,3.212134599E-2
7.438126000E-2,1.557903271E-2,2.916075476E-2,-8.521864191E-3,3.414202758E-2
7.687407200E-2,1.025286783E-2,3.555215150E-2,-9.587096982E-3,3.822288848E-2
7.936688500E-2,7.057168987E-3,3.661738336E-2,-1.065232977E-2,3.878283806E-2
8.185969700E-2,4.926702939E-3,3.342168778E-2,-8.521864191E-3,3.484112204E-2
8.435256200E-2,-1.464695437E-3,3.129122034E-2,-8.521864191E-3,3.246394881E-2
8.684537400E-2,-1.464695437E-3,3.235645220E-2,-8.521864191E-3,3.349190202E-2
8.933818700E-2,-9.986559860E-3,2.703028731E-2,-8.521864191E-3,3.004979167E-2
9.183099900E-2,-7.856093347E-3,1.744319126E-2,-7.456631400E-3,2.053252239E-2
9.432386400E-2,-1.211702544E-2,1.744319126E-2,-7.456631400E-3,2.250974408E-2
9.703839500E-2,-1.105179265E-2,2.383458801E-2,-6.391398143E-3,2.703848510E-2
9.953120800E-2,-1.744319126E-2,1.850842312E-2,-1.065233024E-3,2.545508533E-2
1.020240200E-1,-2.170412242E-2,7.856093347E-3,-3.195699072E-3,2.330235236E-2
1.045168850E-1,-2.383458801E-2,1.211702544E-2,-2.130466048E-3,2.682254232E-2
1.070096970E-1,-2.063889056E-2,9.986559860E-3,-2.130466048E-3,2.302681192E-2
1.095025100E-1,-2.276935615E-2,5.725627299E-3,-3.195699072E-3,2.369470151E-2
1.119953220E-1,-2.276935615E-2,3.595161485E-3,1.065233024E-3,2.307603707E-2
1.144881870E-1,-1.850842312E-2,-1.731003635E-3,2.130466048E-3,1.871087880E-2
1.169809990E-1,-2.063889056E-2,2.529928461E-3,6.391398143E-3,2.175348965E-2
1.194738120E-1,-1.957365684E-2,-1.731003635E-3,6.391398143E-3,2.066335854E-2
1.219666240E-1,-1.531272475E-2,-1.131810062E-2,9.587096982E-3,2.131880319E-2
1.244594890E-1,-1.318225823E-2,-1.344856713E-2,8.521864191E-3,2.067022156E-2
1.271456870E-1,-1.637795754E-2,-1.664426550E-2,7.456631400E-3,2.451265834E-2
1.296384990E-1,-1.424749196E-2,-1.877473295E-2,1.278279629E-2,2.681196571E-2
1.321313120E-1,-3.595161485E-3,-2.090519853E-2,1.171756350E-2,2.423332016E-2
1.346241770E-1,-3.994623839E-4,-1.877473295E-2,1.171756350E-2,2.213484723E-2
1.371169890E-1,-5.725627299E-3,-1.557903271E-2,1.171756350E-2,2.031724298E-2
1.396098020E-1,-3.595161485E-3,-1.131810062E-2,1.171756350E-2,1.668310169E-2
1.421026140E-1,-3.595161485E-3,-9.187635034E-3,1.171756350E-2,1.531793452E-2
1.445954790E-1,1.731003635E-3,-2.796236658E-3,1.171756350E-2,1.217031665E-2
1.470882910E-1,6.657706108E-4,3.595161485E-3,1.384802908E-2,1.432258168E-2
1.495811040E-1,-3.994623839E-4,6.790860556E-3,1.384802908E-2,1.542865084E-2
1.520739160E-1,-1.464695437E-3,7.856093347E-3,9.587096982E-3,1.248102415E-2
1.545667810E-1,6.657706108E-4,1.105179265E-2,1.278279629E-2,1.691109849E-2
1.572736040E-1,4.926702939E-3,1.850842312E-2,1.384802908E-2,2.363476333E-2
1.597664160E-1,2.796236658E-3,2.276935615E-2,1.065232977E-2,2.529297627E-2
1.622592290E-1,5.991935730E-3,1.318225823E-2,1.065232977E-2,1.797629983E-2
1.647520930E-1,9.187635034E-3,1.318225823E-2,1.278279629E-2,2.053252178E-2
1.672449060E-1,2.796236658E-3,9.986559860E-3,1.278279629E-2,1.646056494E-2
1.697377180E-1,2.796236658E-3,2.529928461E-3,9.587096982E-3,1.030203407E-2
1.722305310E-1,1.344856713E-2,-2.796236658E-3,1.278279629E-2,1.876386896E-2
1.747233950E-1,1.131810062E-2,-1.131810062E-2,1.597849466E-2,2.261661103E-2
1.772162080E-1,1.025286783E-2,-5.991935730E-3,6.391398143E-3,1.348608774E-2
1.797090200E-1,1.238333434E-2,-5.991935730E-3,5.326164886E-3,1.475189125E-2
1.822018330E-1,1.451379992E-2,-1.451379992E-2,8.521864191E-3,2.222437728E-2
1.846946970E-1,1.344856713E-2,-1.770949923E-2,5.326164886E-3,2.286609615E-2
1.874116240E-1,1.557903271E-2,-2.090519853E-2,4.260932095E-3,2.641759126E-2
1.899044370E-1,1.877473295E-2,-2.290250920E-2,4.260932095E-3,2.991940954E-2
1.923972490E-1,1.557903271E-2,-2.290250920E-2,5.326164886E-3,2.820636843E-2
1.948901140E-1,1.131810062E-2,-2.716344222E-2,0.000000000E0,2.942706229E-2
1.973829270E-1,1.664426550E-2,-2.090519853E-2,-1.065233024E-3,2.674310418E-2
1.998757390E-1,1.344856713E-2,-2.396774292E-2,-4.260932095E-3,2.781136819E-2
2.023685520E-1,1.238333434E-2,-2.503297664E-2,0.000000000E0,2.792842439E-2
2.048614160E-1,1.238333434E-2,-2.929390781E-2,-2.130466048E-3,3.187505121E-2
2.073542290E-1,8.122402243E-3,-3.568530455E-2,-3.195699072E-3,3.673726816E-2
2.098470410E-1,4.926702939E-3,-3.781577200E-2,-3.195699072E-3,3.826901496E-2
2.123398540E-1,5.991935730E-3,-4.101147130E-2,-1.065233024E-3,4.146056914E-2
2.148327180E-1,2.796236658E-3,-4.527240247E-2,-4.260932095E-3,4.555836813E-2
2.175446970E-1,4.926702939E-3,-4.420717061E-2,-2.130466048E-3,4.453184501E-2
2.200375100E-1,6.657706108E-4,-4.420717061E-2,-3.195699072E-3,4.432752729E-2
2.225303220E-1,-1.464695437E-3,-5.166380107E-2,-2.130466048E-3,5.172845020E-2
2.250231870E-1,-2.529928461E-3,-4.633763805E-2,-2.130466048E-3,4.645552845E-2
2.275159990E-1,-6.790860556E-3,-4.314193875E-2,1.065233024E-3,4.368612351E-2
2.300088120E-1,-9.986559860E-3,-4.101147130E-2,1.065233024E-3,4.222329781E-2
2.325016240E-1,-4.660394508E-3,-4.101147130E-2,0.000000000E0,4.127541708E-2
2.349944890E-1,-4.660394508E-3,-4.207670316E-2,0.000000000E0,4.233400791E-2
2.374873020E-1,-6.790860556E-3,-3.142437339E-2,4.260932095E-3,3.243088917E-2
2.399801140E-1,-7.856093347E-3,-3.035914153E-2,1.065233024E-3,3.137722739E-2
2.424729270E-1,-3.595161485E-3,-3.568530455E-2,0.000000000E0,3.586594690E-2
2.449657910E-1,-2.529928461E-3,-2.929390781E-2,2.130466048E-3,2.948003491E-2
2.476769890E-1,-3.595161485E-3,-2.929390781E-2,5.326164886E-3,2.999043603E-2
2.501698020E-1,-2.529928461E-3,-2.716344222E-2,4.260932095E-3,2.761174884E-2
2.526626140E-1,-1.464695437E-3,-2.290250920E-2,6.391398143E-3,2.382268311E-2
2.551554790E-1,-3.595161485E-3,-2.197043039E-2,5.326164886E-3,2.289089404E-2
2.576482910E-1,-1.464695437E-3,-1.238333434E-2,8.521864191E-3,1.510345892E-2
2.601411040E-1,1.731003635E-3,-1.025286783E-2,6.391398143E-3,1.220523013E-2
2.626339160E-1,6.657706108E-4,-1.344856713E-2,6.391398143E-3,1.490493806E-2
2.651267810E-1,-1.464695437E-3,-9.187635034E-3,6.391398143E-3,1.128751259E-2
2.676195930E-1,-3.994623839E-4,-5.991935730E-3,5.326164886E-3,8.026885846E-3
2.701124060E-1,6.657706108E-4,-8.122402243E-3,5.326164886E-3,9.735743480E-3
2.726052180E-1,3.861469682E-3,-7.057168987E-3,3.195699072E-3,8.656042674E-3
2.750980830E-1,1.731003635E-3,-3.861469682E-3,8.521864191E-3,9.514698680E-3
2.778095410E-1,-3.595161485E-3,3.595161485E-3,6.391398143E-3,8.167027759E-3
2.803023540E-1,6.657706108E-4,5.725627299E-3,3.195699072E-3,6.590792899E-3
2.827951660E-1,-3.994623839E-4,-6.657706108E-4,5.326164886E-3,5.382457905E-3
2.852880310E-1,-3.994623839E-4,2.529928461E-3,3.195699072E-3,4.095436578E-3
2.877808430E-1,-2.529928461E-3,3.595161485E-3,5.326164886E-3,6.906066646E-3
2.902736560E-1,-2.529928461E-3,2.529928461E-3,1.065233024E-3,3.733068098E-3
2.927664680E-1,1.731003635E-3,4.660394508E-3,-2.130466048E-3,5.408746263E-3
2.952593330E-1,-1.464695437E-3,3.595161485E-3,1.065233024E-3,4.025573278E-3
2.977521450E-1,-1.464695437E-3,6.790860556E-3,4.260932095E-3,8.149641841E-3
3.002449580E-1,6.657706108E-4,9.986559860E-3,3.195699072E-3,1.050652754E-2
3.027377700E-1,6.657706108E-4,3.595161485E-3,-1.065233024E-3,3.808301196E-3
3.052306350E-1,1.731003635E-3,-2.796236658E-3,6.391398143E-3,7.187856652E-3
3.079501660E-1,-1.464695437E-3,-8.122402243E-3,4.260932095E-3,9.288395623E-3
3.104429790E-1,6.657706108E-4,-1.025286783E-2,5.326164886E-3,1.157292450E-2
3.129357910E-1,2.796236658E-3,-1.451379992E-2,7.456631400E-3,1.655508017E-2
3.154286560E-1,1.731003635E-3,-1.770949923E-2,3.195699072E-3,1.807858482E-2
3.179214680E-1,2.796236658E-3,-1.451379992E-2,4.260932095E-3,1.538261583E-2
3.204142810E-1,-1.464695437E-3,-1.770949923E-2,3.195699072E-3,1.805503221E-2
3.229070930E-1,-4.660394508E-3,-2.290250920E-2,1.065233024E-3,2.339613058E-2
3.253999580E-1,-3.595161485E-3,-2.197043039E-2,2.130466048E-3,2.236434401E-2
3.278927700E-1,6.657706108E-4,-2.609820850E-2,3.195699072E-3,2.630156326E-2
3.303855830E-1,-7.856093347E-3,-2.609820850E-2,2.130466048E-3,2.733813409E-2
3.328783950E-1,-7.856093347E-3,-3.248960897E-2,0.000000000E0,3.342593146E-2
3.353712600E-1,-8.921326138E-3,-3.355484083E-2,0.000000000E0,3.472056168E-2
3.380808430E-1,-9.986559860E-3,-3.035914153E-2,3.195699072E-3,3.211886276E-2
3.405736560E-1,-4.660394508E-3,-3.675054014E-2,2.130466048E-3,3.710606908E-2
3.430664680E-1,-7.856093347E-3,-4.527240247E-2,5.326164886E-3,4.625663909E-2
3.455593330E-1,-6.790860556E-3,-4.953333735E-2,4.260932095E-3,5.017791186E-2
3.480521450E-1,-8.921326138E-3,-4.740286991E-2,5.326164886E-3,4.852824093E-2
3.505449580E-1,-4.660394508E-3,-4.527240247E-2,6.391398143E-3,4.595823835E-2
3.530377700E-1,-5.725627299E-3,-5.272903293E-2,5.326164886E-3,5.330573848E-2
3.555306350E-1,-4.660394508E-3,-5.166380107E-2,5.326164886E-3,5.214629086E-2
3.580234470E-1,-4.660394508E-3,-3.994623944E-2,7.456631400E-3,4.090259985E-2
3.605162600E-1,-5.725627299E-3,-3.675054014E-2,8.521864191E-3,3.815766211E-2
3.630090720E-1,-8.921326138E-3,-4.633763805E-2,4.260932095E-3,4.738061104E-2
3.655019370E-1,-8.921326138E-3,-4.420717061E-2,9.587096982E-3,4.610614299E-2
3.682107390E-1,-3.595161485E-3,-3.994623944E-2,1.384802908E-2,4.243106340E-2
3.707035520E-1,-5.725627299E-3,-3.568530455E-2,1.384802908E-2,3.870389746E-2
3.731963640E-1,-4.660394508E-3,-3.462007269E-2,1.065232977E-2,3.652041675E-2
3.756892290E-1,-2.529928461E-3,-3.568530455E-2,1.171756350E-2,3.764495708E-2
3.781820410E-1,-3.595161485E-3,-3.568530455E-2,1.171756350E-2,3.773151788E-2
3.806748540E-1,-3.595161485E-3,-3.781577200E-2,1.065232977E-2,3.945161502E-2
3.831676660E-1,-4.660394508E-3,-4.633763805E-2,8.521864191E-3,4.734467390E-2
3.856605310E-1,1.731003635E-3,-4.527240247E-2,1.065233024E-3,4.531800437E-2
3.881533430E-1,-3.994623839E-4,-4.846810177E-2,4.260932095E-3,4.865667479E-2
3.906461560E-1,6.657706108E-4,-5.592473224E-2,5.326164886E-3,5.618173154E-2
3.931389680E-1,6.657706108E-4,-5.166380107E-2,5.326164886E-3,5.194188699E-2
3.956318330E-1,1.731003635E-3,-5.059856921E-2,5.326164886E-3,5.090755948E-2
3.983453740E-1,-1.464695437E-3,-4.953333735E-2,2.130466048E-3,4.960076338E-2
4.008381870E-1,-8.921326138E-3,-5.166380107E-2,3.195699072E-3,5.252571650E-2
4.033309990E-1,-1.211702544E-2,-5.592473224E-2,3.195699072E-3,5.731152130E-2
4.058238640E-1,-6.790860556E-3,-5.059856921E-2,0.000000000E0,5.105223789E-2
4.083166770E-1,-1.211702544E-2,-5.166380107E-2,3.195699072E-3,5.316185794E-2
4.108094890E-1,-1.637795754E-2,-4.420717061E-2,1.065233024E-3,4.715555267E-2
4.133023020E-1,-1.424749196E-2,-3.568530455E-2,2.130466048E-3,3.848338438E-2
4.157951660E-1,-1.424749196E-2,-3.142437339E-2,-3.195699072E-3,3.465104273E-2
4.182879790E-1,-1.531272475E-2,-1.983996481E-2,-2.130466048E-3,2.515238812E-2
4.207807910E-1,-1.957365684E-2,-1.238333434E-2,-3.195699072E-3,2.338134949E-2
4.232736040E-1,-2.063889056E-2,-1.238333434E-2,0.000000000E0,2.406887561E-2
4.257664680E-1,-1.424749196E-2,-4.926702939E-3,-1.065233024E-3,1.511284719E-2
4.284798540E-1,-1.850842312E-2,1.464695437E-3,-4.260932095E-3,1.904895276E-2
4.309726660E-1,-2.489982173E-2,4.660394508E-3,-3.195699072E-3,2.553297655E-2
4.334654790E-1,-2.170412242E-2,2.529928461E-3,-1.065233024E-3,2.187702424E-2
4.359583430E-1,-2.383458801E-2,-6.657706108E-4,-3.195699072E-3,2.405708479E-2
4.384511560E-1,-2.276935615E-2,8.921326138E-3,-2.130466048E-3,2.454735271E-2
4.409439680E-1,-2.276935615E-2,9.986559860E-3,-2.130466048E-3,2.495423497E-2
4.434367810E-1,-1.850842312E-2,-6.657706108E-4,2.130466048E-3,1.864252833E-2
4.459296450E-1,-1.637795754E-2,-4.926702939E-3,2.130466048E-3,1.723510315E-2
4.484224580E-1,-1.744319126E-2,-1.557903271E-2,1.065233024E-3,2.341166169E-2
4.509152700E-1,-1.744319126E-2,-2.503297664E-2,-2.130466048E-3,3.058518802E-2
4.534080830E-1,-1.850842312E-2,-3.462007269E-2,-1.065233024E-3,3.927143849E-2
4.559009470E-1,-1.744319126E-2,-4.101147130E-2,-1.065233024E-3,4.457959647E-2
4.586154790E-1,-1.850842312E-2,-4.101147130E-2,0.000000000E0,4.499447193E-2
4.611082910E-1,-1.744319126E-2,-4.846810177E-2,1.065233024E-3,5.152238865E-2
4.636011040E-1,-1.531272475E-2,-5.805519968E-2,2.130466048E-3,6.007848729E-2
4.660939680E-1,-1.531272475E-2,-5.166380107E-2,2.130466048E-3,5.392742128E-2
4.685867810E-1,-1.424749196E-2,-4.527240247E-2,3.195699072E-3,4.756883375E-2
4.710795930E-1,-1.211702544E-2,-4.314193875E-2,1.065233024E-3,4.482392113E-2
4.735724060E-1,-6.790860556E-3,-4.207670316E-2,3.195699072E-3,4.274081455E-2
4.760652700E-1,-6.790860556E-3,-3.781577200E-2,2.130466048E-3,3.847969964E-2
4.785580830E-1,-2.529928461E-3,-1.983996481E-2,5.326164886E-3,2.069765141E-2
4.810508950E-1,-1.464695437E-3,-1.770949923E-2,6.391398143E-3,1.888442919E-2
4.835437080E-1,6.657706108E-4,-1.451379992E-2,7.456631400E-3,1.633079883E-2
4.860365720E-1,3.861469682E-3,-8.122402243E-3,7.456631400E-3,1.168271022E-2
4.887449580E-1,1.731003635E-3,-2.796236658E-3,6.391398143E-3,7.187856652E-3
4.912377700E-1,4.926702939E-3,-3.861469682E-3,8.521864191E-3,1.057381290E-2
4.937305830E-1,7.057168987E-3,-6.657706108E-4,1.171756350E-2,1.369482307E-2
4.962234470E-1,8.122402243E-3,-3.861469682E-3,9.587096982E-3,1.314521947E-2
4.987162600E-1,8.122402243E-3,3.595161485E-3,1.065232977E-2,1.386977772E-2
5.012090720E-1,9.187635034E-3,2.529928461E-3,1.065232977E-2,1.429284104E-2
5.037018850E-1,1.131810062E-2,-7.057168987E-3,8.521864191E-3,1.582798803E-2
5.061947490E-1,1.131810062E-2,-1.025286783E-2,1.171756350E-2,1.924894788E-2
5.086875620E-1,9.187635034E-3,-1.344856713E-2,1.171756350E-2,2.006434374E-2
5.111803740E-1,1.025286783E-2,-1.983996481E-2,1.278279629E-2,2.573218574E-2
5.136731870E-1,1.131810062E-2,-1.877473295E-2,1.597849466E-2,2.712751906E-2
5.161660520E-1,1.025286783E-2,-2.197043039E-2,1.704372838E-2,2.963629173E-2
5.188969370E-1,9.187635034E-3,-1.557903271E-2,1.597849466E-2,2.413361120E-2
5.213897490E-1,8.122402243E-3,-1.025286783E-2,1.171756350E-2,1.756120756E-2
5.238825620E-1,1.131810062E-2,-1.877473295E-2,1.384802908E-2,2.592986518E-2
5.263754270E-1,3.861469682E-3,-2.197043039E-2,1.171756350E-2,2.519746126E-2
5.288682390E-1,3.861469682E-3,-2.090519853E-2,1.171756350E-2,2.427425731E-2
5.313610520E-1,5.991935730E-3,-2.090519853E-2,9.587096982E-3,2.376642691E-2
5.338538640E-1,-3.994623839E-4,-2.197043039E-2,1.065232977E-2,2.441989990E-2
5.363467290E-1,-2.529928461E-3,-2.290250920E-2,9.587096982E-3,2.495672042E-2
5.388395410E-1,-7.856093347E-3,-1.877473295E-2,9.587096982E-3,2.249713823E-2
5.413323540E-1,-7.856093347E-3,-1.451379992E-2,7.456631400E-3,1.810994044E-2
5.438251660E-1,-8.921326138E-3,-1.451379992E-2,8.521864191E-3,1.904895319E-2
5.463180310E-1,-8.921326138E-3,-5.991935730E-3,7.456631400E-3,1.308031749E-2
5.490243330E-1,-1.105179265E-2,-6.657706108E-4,9.587096982E-3,1.464574340E-2
5.515208430E-1,-1.211702544E-2,-1.731003635E-3,1.065232977E-2,1.622623828E-2
5.540173540E-1,-1.531272475E-2,1.464695437E-3,9.587096982E-3,1.812559793E-2
5.565139160E-1,-1.531272475E-2,5.725627299E-3,1.171756350E-2,2.011376746E-2
5.590104270E-1,-1.424749196E-2,1.531272475E-2,8.521864191E-3,2.258523269E-2
5.615069370E-1,-1.637795754E-2,1.105179265E-2,7.456631400E-3,2.111826143E-2
5.640034470E-1,-1.744319126E-2,2.529928461E-3,8.521864191E-3,1.957773298E-2
5.664999580E-1,-2.063889056E-2,5.725627299E-3,6.391398143E-3,2.235165725E-2
5.689964680E-1,-2.689713426E-2,1.464695437E-3,2.130466048E-3,2.702110378E-2
5.714929790E-1,-2.796236612E-2,-1.731003635E-3,0.000000000E0,2.801589357E-2
5.739894890E-1,-2.489982173E-2,-1.731003635E-3,-1.065233024E-3,2.498263831E-2
5.764859990E-1,-2.489982173E-2,-7.057168987E-3,1.065233024E-3,2.590249945E-2
5.791473020E-1,-2.489982173E-2,3.994623839E-4,-3.195699072E-3,2.510723372E-2
5.816438120E-1,-2.596505545E-2,1.464695437E-3,-1.065233024E-3,2.602814167E-2
5.841403220E-1,-1.957365684E-2,-3.861469682E-3,-2.130466048E-3,2.006434339E-2
5.866368850E-1,-2.383458801E-2,1.464695437E-3,-2.130466048E-3,2.397439892E-2
5.891333950E-1,-2.170412242E-2,9.986559860E-3,-6.391398143E-3,2.473156441E-2
5.916299060E-1,-2.383458801E-2,1.105179265E-2,-4.260932095E-3,2.661550767E-2
5.941264160E-1,-2.383458801E-2,1.318225823E-2,-2.130466048E-3,2.732029288E-2
5.966229270E-1,-2.063889056E-2,1.637795754E-2,-5.326164886E-3,2.688064972E-2
5.991194370E-1,-1.744319126E-2,2.170412242E-2,-4.260932095E-3,2.816894378E-2
6.016159470E-1,-1.211702544E-2,2.276935615E-2,-4.260932095E-3,2.614233018E-2
6.041124580E-1,-1.637795754E-2,1.637795754E-2,-5.326164886E-3,2.376642629E-2
6.066089680E-1,-1.211702544E-2,9.986559860E-3,-4.260932095E-3,1.626988708E-2
6.092808430E-1,-1.211702544E-2,8.921326138E-3,-7.456631400E-3,1.679326405E-2
6.117773540E-1,-7.856093347E-3,1.464695437E-3,-5.326164886E-3,9.603726766E-3
6.142738640E-1,-1.105179265E-2,3.994623839E-4,-2.130466048E-3,1.126235218E-2
6.167704270E-1,-8.921326138E-3,3.595161485E-3,-4.260932095E-3,1.052001846E-2
6.192669370E-1,-2.529928461E-3,8.921326138E-3,-8.521864191E-3,1.259415608E-2
6.217634470E-1,-6.790860556E-3,7.856093347E-3,-7.456631400E-3,1.278418326E-2
6.242599580E-1,-3.595161485E-3,2.529928461E-3,-5.326164886E-3,6.906066646E-3
6.267564680E-1,-1.464695437E-3,3.994623839E-4,-7.456631400E-3,7.609615940E-3
6.292529790E-1,6.657706108E-4,-4.926702939E-3,-5.326164886E-3,7.285855115E-3
6.317494890E-1,1.731003635E-3,-2.796236658E-3,-3.195699072E-3,4.585608530E-3
6.342459990E-1,6.657706108E-4,-6.657706108E-4,-4.260932095E-3,4.363718980E-3
6.367425100E-1,3.861469682E-3,-4.926702939E-3,-6.391398143E-3,8.946134371E-3
6.394146450E-1,7.057168987E-3,5.725627299E-3,-4.260932095E-3,1.003703066E-2
6.419111560E-1,2.796236658E-3,9.986559860E-3,-7.456631400E-3,1.277308378E-2
6.444076660E-1,1.731003635E-3,7.856093347E-3,-3.195699072E-3,8.656042330E-3
6.469041770E-1,4.926702939E-3,1.424749196E-2,-8.521864191E-3,1.731720526E-2
6.494007390E-1,1.731003635E-3,1.744319126E-2,-8.521864191E-3,1.949059938E-2
6.518972490E-1,3.861469682E-3,1.850842312E-2,-1.065232977E-2,2.170126273E-2
6.543937600E-1,4.926702939E-3,2.383458801E-2,-8.521864191E-3,2.578724794E-2
6.568902700E-1,3.861469682E-3,2.809552103E-2,-4.260932095E-3,2.867794959E-2
6.593867810E-1,3.861469682E-3,3.661738336E-2,-8.521864191E-3,3.779372807E-2
6.618832910E-1,5.991935730E-3,4.194355011E-2,-5.326164886E-3,4.270284208E-2
6.643798020E-1,1.731003635E-3,3.448691964E-2,-4.260932095E-3,3.479223394E-2
6.668763120E-1,4.926702939E-3,3.235645220E-2,-8.521864191E-3,3.382062344E-2
6.695482390E-1,5.991935730E-3,3.129122034E-2,-2.130466048E-3,3.193090430E-2
6.720447490E-1,8.122402243E-3,3.022598661E-2,-3.195699072E-3,3.146102633E-2
6.745412600E-1,9.187635034E-3,2.809552103E-2,-2.130466048E-3,2.963629237E-2
6.770378220E-1,6.657706108E-4,2.383458801E-2,-3.195699072E-3,2.405708479E-2
6.795343330E-1,-3.994623839E-4,2.383458801E-2,-4.260932095E-3,2.421575309E-2
6.820308430E-1,-3.994623839E-4,1.850842312E-2,-3.195699072E-3,1.878653212E-2
6.845273540E-1,-3.994623839E-4,1.318225823E-2,-2.130466048E-3,1.335928097E-2
6.870238640E-1,-2.529928461E-3,8.921326138E-3,-6.391398143E-3,1.126235181E-2
6.895203740E-1,-3.595161485E-3,-6.657706108E-4,-8.521864191E-3,9.273111985E-3
6.920168850E-1,-5.725627299E-3,-1.731003635E-3,-5.326164886E-3,8.009195587E-3
6.945133950E-1,-4.660394508E-3,-2.796236658E-3,-4.260932095E-3,6.906066807E-3
6.970099060E-1,-3.595161485E-3,-2.796236658E-3,-5.326164886E-3,7.008006703E-3
6.996806350E-1,-6.790860556E-3,6.790860556E-3,-5.326164886E-3,1.098178522E-2
7.021771450E-1,-5.725627299E-3,2.529928461E-3,-7.456631400E-3,9.735743311E-3
7.046736560E-1,-4.660394508E-3,3.994623839E-4,-2.130466048E-3,5.139818358E-3
7.071702180E-1,-4.660394508E-3,4.660394508E-3,-1.065233024E-3,6.676321992E-3
7.096667290E-1,-6.790860556E-3,-1.731003635E-3,-4.260932095E-3,8.201689033E-3
7.121632390E-1,-5.725627299E-3,3.994623839E-4,-7.456631400E-3,9.409767797E-3
7.146597490E-1,-7.856093347E-3,-1.731003635E-3,-5.326164886E-3,9.647932870E-3
7.171562600E-1,-7.856093347E-3,-4.926702939E-3,-3.195699072E-3,9.808317750E-3
7.196527700E-1,-4.660394508E-3,-4.926702939E-3,-6.391398143E-3,9.318886685E-3
7.221492810E-1,-7.856093347E-3,-4.926702939E-3,-5.326164886E-3,1.069385978E-2
7.246457910E-1,-5.725627299E-3,-9.187635034E-3,-3.195699072E-3,1.128751248E-2
7.271423020E-1,-5.725627299E-3,-1.238333434E-2,-4.260932095E-3,1.429284155E-2
7.298133430E-1,-2.529928461E-3,-1.344856713E-2,-6.391398143E-3,1.510345875E-2
7.323098540E-1,-3.595161485E-3,-1.344856713E-2,-3.195699072E-3,1.428291415E-2
7.348063640E-1,-2.529928461E-3,-1.451379992E-2,-6.391398143E-3,1.605929315E-2
7.373029270E-1,2.796236658E-3,-1.770949923E-2,-9.587096982E-3,2.033120092E-2
7.397994370E-1,-1.464695437E-3,-1.025286783E-2,-7.456631400E-3,1.276197411E-2
7.422959470E-1,3.861469682E-3,-8.122402243E-3,-7.456631400E-3,1.168271022E-2
7.447924580E-1,2.796236658E-3,-1.451379992E-2,-4.260932095E-3,1.538261583E-2
7.472889680E-1,3.861469682E-3,-1.238333434E-2,-8.521864191E-3,1.552031207E-2
7.497854790E-1,2.796236658E-3,-8.122402243E-3,-6.391398143E-3,1.070711576E-2
7.522819890E-1,7.057168987E-3,-6.657706108E-4,-4.260932095E-3,8.270575974E-3
7.547784990E-1,5.991935730E-3,2.529928461E-3,-7.456631400E-3,9.894704828E-3
7.572750100E-1,4.926702939E-3,1.464695437E-3,-2.130466048E-3,5.563867374E-3
7.599530830E-1,9.187635034E-3,9.986559860E-3,-1.065233024E-3,1.361171322E-2
7.624495930E-1,5.991935730E-3,1.105179265E-2,-4.260932095E-3,1.327407085E-2
7.649461040E-1,-1.464695437E-3,7.856093347E-3,-5.326164886E-3,9.603726766E-3
7.674426660E-1,1.731003635E-3,1.318225823E-2,-8.521864191E-3,1.579210167E-2
7.699391770E-1,1.731003635E-3,1.637795754E-2,-8.521864191E-3,1.854335557E-2
7.724356870E-1,-3.994623839E-4,1.744319126E-2,-7.456631400E-3,1.897434698E-2
7.749321970E-1,-2.529928461E-3,1.850842312E-2,-9.587096982E-3,2.099701629E-2
7.774287080E-1,-2.529928461E-3,1.637795754E-2,-1.065232977E-2,1.970051169E-2
7.799252180E-1,-1.464695437E-3,2.489982173E-2,-8.521864191E-3,2.635846399E-2
7.824217290E-1,-4.660394508E-3,2.489982173E-2,-8.521864191E-3,2.672718781E-2
7.849182390E-1,-4.660394508E-3,2.276935615E-2,-1.065232977E-2,2.556628612E-2
7.874147490E-1,-3.994623839E-4,2.809552103E-2,-7.456631400E-3,2.907093435E-2
7.900944370E-1,-6.790860556E-3,2.703028731E-2,-9.587096982E-3,2.947311737E-2
7.925909470E-1,-1.105179265E-2,2.916075476E-2,-1.171756350E-2,3.331355629E-2
7.950874580E-1,-8.921326138E-3,3.342168778E-2,-7.456631400E-3,3.538644693E-2
7.975840200E-1,-1.105179265E-2,3.448691964E-2,-8.521864191E-3,3.720365461E-2
8.000805310E-1,-1.531272475E-2,3.768261895E-2,-1.065232977E-2,4.204677680E-2
8.025770410E-1,-1.318225823E-2,3.661738336E-2,-9.587096982E-3,4.008138127E-2
8.050735520E-1,-9.986559860E-3,3.448691964E-2,-6.391398143E-3,3.646819127E-2
8.075700620E-1,-1.318225823E-2,3.129122034E-2,-6.391398143E-3,3.455086645E-2
8.100665720E-1,-1.105179265E-2,3.342168778E-2,-1.065232977E-2,3.677802965E-2
8.125630830E-1,-1.105179265E-2,3.661738336E-2,-5.326164886E-3,3.861790928E-2
8.150595930E-1,-1.105179265E-2,3.235645220E-2,-1.065232977E-2,3.581276657E-2
8.175561040E-1,-8.921326138E-3,3.448691964E-2,-1.278279629E-2,3.784623584E-2
8.202144370E-1,-9.986559860E-3,5.046541616E-2,-8.521864191E-3,5.214510308E-2
8.227109470E-1,-1.318225823E-2,4.726971686E-2,-4.260932095E-3,4.925803088E-2
8.252074580E-1,-1.318225823E-2,3.661738336E-2,-8.521864191E-3,3.984001588E-2
8.277040200E-1,-9.986559860E-3,3.768261895E-2,-7.456631400E-3,3.969020660E-2
8.302005310E-1,-6.790860556E-3,3.661738336E-2,-1.065233024E-3,3.725698958E-2
8.326970410E-1,-4.660394508E-3,3.555215150E-2,0.000000000E0,3.585630702E-2
8.351935520E-1,-7.856093347E-3,3.129122034E-2,0.000000000E0,3.226234140E-2
8.376900620E-1,-2.529928461E-3,3.022598661E-2,-3.195699072E-3,3.049956225E-2
8.401865720E-1,-2.529928461E-3,3.342168778E-2,-4.260932095E-3,3.378705809E-2
8.426830830E-1,-3.994623839E-4,2.596505545E-2,-2.130466048E-3,2.605537488E-2
8.451795930E-1,7.057168987E-3,2.276935615E-2,-2.130466048E-3,2.393295007E-2
8.476761040E-1,2.796236658E-3,1.637795754E-2,-1.065233024E-3,1.664905865E-2
8.503475620E-1,5.991935730E-3,7.856093347E-3,0.000000000E0,9.880359127E-3
8.528440720E-1,4.926702939E-3,1.464695437E-3,-4.260932095E-3,6.676322108E-3
8.553405830E-1,4.926702939E-3,-3.861469682E-3,-1.065233024E-3,6.349651278E-3
8.578371450E-1,5.991935730E-3,-1.131810062E-2,1.065233024E-3,1.285058041E-2
8.603336560E-1,6.657706108E-4,-1.131810062E-2,0.000000000E0,1.133766519E-2
8.628301660E-1,6.657706108E-4,-1.877473295E-2,-1.065233024E-3,1.881670984E-2
8.653266770E-1,4.926702939E-3,-2.090519853E-2,-1.065233024E-3,2.150428908E-2
8.678231870E-1,1.731003635E-3,-2.609820850E-2,-1.065233024E-3,2.617723404E-2
8.703196970E-1,-3.994623839E-4,-2.822867595E-2,-3.195699072E-3,2.841179699E-2
8.728162080E-1,-1.464695437E-3,-2.290250920E-2,0.000000000E0,2.294929760E-2
8.753127180E-1,6.657706108E-4,-2.090519853E-2,-5.326164886E-3,2.158329466E-2
8.778092290E-1,6.657706108E-4,-1.664426550E-2,-7.456631400E-3,1.825037469E-2
8.804839160E-1,-3.595161485E-3,-1.025286783E-2,-8.521864191E-3,1.380828208E-2
8.829804270E-1,-5.725627299E-3,-8.122402243E-3,-4.260932095E-3,1.081257455E-2
8.854769370E-1,-6.790860556E-3,-9.187635034E-3,-3.195699072E-3,1.186342772E-2
8.879734990E-1,-4.660394508E-3,-5.991935730E-3,-6.391398143E-3,9.923333159E-3
8.904700100E-1,-1.105179265E-2,-7.057168987E-3,-4.260932095E-3,1.378772270E-2
8.929665200E-1,-1.211702544E-2,-3.861469682E-3,-4.260932095E-3,1.341226290E-2
8.954630310E-1,-1.424749196E-2,-2.796236658E-3,-3.195699072E-3,1.486682411E-2
8.979595410E-1,-1.850842312E-2,-2.796236658E-3,0.000000000E0,1.871845789E-2
9.004560520E-1,-1.531272475E-2,1.464695437E-3,-5.326164886E-3,1.627860265E-2
9.029525620E-1,-1.744319126E-2,4.660394508E-3,-1.065233024E-3,1.808642916E-2
9.054490720E-1,-2.276935615E-2,-3.861469682E-3,-3.195699072E-3,2.331452380E-2
9.079455830E-1,-1.957365684E-2,-2.796236658E-3,-3.195699072E-3,2.002896588E-2
9.106180310E-1,-2.063889056E-2,-5.991935730E-3,0.000000000E0,2.149109345E-2
9.131145410E-1,-1.531272475E-2,-7.057168987E-3,1.065233024E-3,1.689431545E-2
9.156110520E-1,-1.531272475E-2,-8.122402243E-3,-5.326164886E-3,1.813342190E-2
9.181076140E-1,-1.957365684E-2,-1.131810062E-2,-3.195699072E-3,2.283505937E-2
9.206041240E-1,-1.850842312E-2,-7.057168987E-3,-2.130466048E-3,1.992245582E-2
9.231006350E-1,-1.957365684E-2,-7.057168987E-3,-4.260932095E-3,2.123881396E-2
9.255971450E-1,-1.957365684E-2,-1.664426550E-2,-4.260932095E-3,2.604448423E-2
9.280936560E-1,-1.637795754E-2,-1.131810062E-2,0.000000000E0,1.990821174E-2
9.305901660E-1,-1.744319126E-2,-3.861469682E-3,2.130466048E-3,1.799207478E-2
9.330866770E-1,-1.744319126E-2,-3.861469682E-3,3.195699072E-3,1.814905953E-2
9.355831870E-1,-1.424749196E-2,3.994623839E-4,3.195699072E-3,1.460695347E-2
9.380796970E-1,-1.318225823E-2,4.660394508E-3,4.260932095E-3,1.461666006E-2
9.407650100E-1,-1.424749196E-2,1.531272475E-2,1.065233024E-3,2.094290542E-2
9.432615200E-1,-4.660394508E-3,1.850842312E-2,5.326164886E-3,1.981537372E-2
9.457580310E-1,-5.725627299E-3,1.531272475E-2,4.260932095E-3,1.689431530E-2
9.482545930E-1,-6.790860556E-3,1.531272475E-2,6.391398143E-3,1.792889557E-2
9.507511040E-1,-4.660394508E-3,1.637795754E-2,5.326164886E-3,1.784165919E-2
9.532476140E-1,-1.464695437E-3,1.211702544E-2,3.195699072E-3,1.261666084E-2
9.557441240E-1,-3.994623839E-4,8.921326138E-3,4.260932095E-3,9.894704269E-3
9.582406350E-1,-3.994623839E-4,8.921326138E-3,7.456631400E-3,1.163404410E-2
9.607371450E-1,3.861469682E-3,9.986559860E-3,7.456631400E-3,1.304774608E-2
9.632336560E-1,1.731003635E-3,-6.657706108E-4,5.326164886E-3,5.639827700E-3
9.657301660E-1,7.057168987E-3,-1.131810062E-2,5.326164886E-3,1.436214009E-2
9.682266770E-1,9.187635034E-3,-1.557903271E-2,8.521864191E-3,1.999352563E-2
9.708983950E-1,5.991935730E-3,-1.983996481E-2,1.065232977E-2,2.330235239E-2
9.733949060E-1,9.187635034E-3,-2.716344222E-2,9.587096982E-3,3.023537100E-2
9.758914160E-1,1.451379992E-2,-3.462007269E-2,7.456631400E-3,3.827272101E-2
9.783879790E-1,1.131810062E-2,-4.101147130E-2,6.391398143E-3,4.302197288E-2
9.808844890E-1,1.238333434E-2,-3.462007269E-2,6.391398143E-3,3.731951732E-2
9.833809990E-1,1.557903271E-2,-3.675054014E-2,8.521864191E-3,4.081581348E-2
9.858775100E-1,1.344856713E-2,-4.846810177E-2,1.065232977E-2,5.141491006E-2
9.883740200E-1,1.770949923E-2,-4.633763805E-2,1.384802908E-2,5.150311614E-2
9.908705310E-1,1.451379992E-2,-4.420717061E-2,1.171756350E-2,4.798151327E-2
9.933670410E-1,1.664426550E-2,-4.101147130E-2,8.521864191E-3,4.507321291E-2
9.958635520E-1,1.664426550E-2,-3.568530455E-2,9.587096982E-3,4.052634900E-2
9.983600620E-1,1.131810062E-2,-3.568530455E-2,7.456631400E-3,3.817252565E-2
1.001036520E0,8.122402243E-3,-2.290250920E-2,8.521864191E-3,2.575112648E-2
1.003533031E0,1.344856713E-2,-1.770949923E-2,8.521864191E-3,2.381412375E-2
1.006029541E0,9.187635034E-3,-2.090519853E-2,9.587096982E-3,2.476595227E-2
1.008526104E0,8.122402243E-3,-1.344856713E-2,1.065232977E-2,1.898182040E-2
1.011022614E0,4.926702939E-3,-1.238333434E-2,8.521864191E-3,1.581902464E-2
1.013519124E0,5.991935730E-3,-7.057168987E-3,4.260932095E-3,1.019129384E-2
1.016015635E0,6.657706108E-4,-7.057168987E-3,8.521864191E-3,1.108463143E-2
1.018512145E0,4.926702939E-3,-6.657706108E-4,7.456631400E-3,8.961975462E-3
1.021008656E0,8.122402243E-3,1.105179265E-2,8.521864191E-3,1.614737466E-2
1.023505166E0,1.731003635E-3,1.105179265E-2,6.391398143E-3,1.288365106E-2
1.026001677E0,6.657706108E-4,5.725627299E-3,7.456631400E-3,9.424829458E-3
1.028498187E0,3.861469682E-3,7.856093347E-3,7.456631400E-3,1.149915226E-2
1.031164541E0,5.991935730E-3,6.790860556E-3,3.195699072E-3,9.603727060E-3
1.033661052E0,-1.464695437E-3,4.660394508E-3,3.195699072E-3,5.837559614E-3
1.036157562E0,-1.464695437E-3,4.660394508E-3,5.326164886E-3,7.227215376E-3
1.038654124E0,-4.660394508E-3,3.595161485E-3,2.130466048E-3,6.259660426E-3
1.041150635E0,-1.464695437E-3,1.318225823E-2,2.130466048E-3,1.343339683E-2
1.043647145E0,-3.595161485E-3,6.790860556E-3,3.195699072E-3,8.321866723E-3
1.046143656E0,-2.529928461E-3,-4.926702939E-3,4.260932095E-3,6.987737988E-3
1.048640166E0,-3.595161485E-3,-5.991935730E-3,1.065233024E-3,7.068465271E-3
1.051136677E0,-2.529928461E-3,-5.991935730E-3,2.130466048E-3,6.844173974E-3
1.053633187E0,2.796236658E-3,-1.025286783E-2,1.065233024E-3,1.068058797E-2
1.056129697E0,-3.595161485E-3,-1.451379992E-2,-5.326164886E-3,1.587273154E-2
1.058626208E0,-5.725627299E-3,-1.664426550E-2,-1.065233024E-3,1.763374899E-2
1.061299854E0,-6.790860556E-3,-1.131810062E-2,1.065233024E-3,1.324197531E-2
1.063799281E0,-3.994623839E-4,-1.025286783E-2,-1.065233024E-3,1.031579324E-2
1.066298708E0,-4.660394508E-3,-1.770949923E-2,-1.065233024E-3,1.834340103E-2
1.068798187E0,-9.986559860E-3,-1.664426550E-2,0.000000000E0,1.941038258E-2
1.071297614E0,-6.790860556E-3,-1.877473295E-2,2.130466048E-3,2.007847778E-2
1.073797041E0,-1.211702544E-2,-2.197043039E-2,-2.130466048E-3,2.518056796E-2
1.076296520E0,-8.921326138E-3,-2.716344222E-2,-3.195699072E-3,2.876899626E-2
1.078795947E0,-1.531272475E-2,-2.822867595E-2,-3.195699072E-3,3.227305652E-2
1.081295374E0,-1.211702544E-2,-1.983996481E-2,-1.065233024E-3,2.327189787E-2
1.083794802E0,-1.318225823E-2,-2.090519853E-2,-1.065233024E-3,2.473729935E-2
1.086294281E0,-1.424749196E-2,-3.142437339E-2,0.000000000E0,3.450336607E-2
1.088793708E0,-1.211702544E-2,-3.142437339E-2,1.065233024E-3,3.369641331E-2
1.091433968E0,-1.211702544E-2,-2.609820850E-2,-1.065233024E-3,2.879363669E-2
1.093933395E0,-1.318225823E-2,-2.090519853E-2,-1.065233024E-3,2.473729935E-2
1.096432822E0,-1.105179265E-2,-2.609820850E-2,1.065233024E-3,2.836182874E-2
1.098932302E0,-6.790860556E-3,-2.197043039E-2,-1.065233024E-3,2.302064986E-2
1.101431729E0,-1.105179265E-2,-1.344856713E-2,-3.195699072E-3,1.769798212E-2
1.103931156E0,-8.921326138E-3,-1.238333434E-2,-1.065233024E-3,1.529940361E-2
1.106430635E0,-9.986559860E-3,-1.557903271E-2,5.326164886E-3,1.925631508E-2
1.108930062E0,-4.660394508E-3,-1.344856713E-2,2.130466048E-3,1.439173792E-2
1.111429489E0,-2.529928461E-3,-1.344856713E-2,4.260932095E-3,1.433248193E-2
1.113928916E0,-2.529928461E-3,-1.451379992E-2,2.130466048E-3,1.488589304E-2
1.116428395E0,-3.994623839E-4,-1.344856713E-2,1.065233024E-3,1.349660140E-2
1.118927822E0,4.926702939E-3,-2.197043039E-2,4.260932095E-3,2.291566616E-2
1.121565635E0,2.796236658E-3,-2.090519853E-2,5.326164886E-3,2.175348932E-2
1.124065062E0,3.861469682E-3,-2.503297664E-2,5.326164886E-3,2.588298476E-2
1.126564489E0,7.057168987E-3,-3.355484083E-2,8.521864191E-3,3.533204136E-2
1.129063968E0,4.926702939E-3,-3.355484083E-2,8.521864191E-3,3.496887065E-2
1.131563395E0,9.187635034E-3,-3.568530455E-2,1.171756350E-2,3.866723280E-2
1.134062822E0,1.025286783E-2,-3.781577200E-2,1.384802908E-2,4.155624886E-2
1.136562302E0,1.344856713E-2,-3.781577200E-2,1.278279629E-2,4.212239844E-2
1.139061729E0,1.451379992E-2,-4.314193875E-2,1.491326280E-2,4.789867090E-2
1.141561156E0,1.664426550E-2,-3.675054014E-2,1.278279629E-2,4.232060557E-2
1.144060635E0,1.664426550E-2,-3.888100386E-2,1.278279629E-2,4.418329906E-2
1.146560062E0,1.131810062E-2,-4.953333735E-2,1.491326280E-2,5.295334096E-2
1.149059489E0,1.451379992E-2,-5.272903293E-2,1.065232977E-2,5.571780175E-2
1.151696781E0,1.344856713E-2,-5.485950038E-2,9.587096982E-3,5.729171989E-2
1.154196208E0,1.877473295E-2,-5.592473224E-2,1.171756350E-2,6.014455559E-2
1.156695635E0,2.090519853E-2,-5.379426852E-2,1.171756350E-2,5.889101753E-2
1.159195114E0,1.770949923E-2,-5.272903293E-2,8.521864191E-3,5.627254611E-2
1.161694541E0,1.344856713E-2,-4.633763805E-2,9.587096982E-3,4.919301868E-2
1.164193968E0,1.557903271E-2,-4.420717061E-2,8.521864191E-3,4.764034385E-2
1.166693447E0,9.187635034E-3,-4.420717061E-2,6.391398143E-3,4.560193571E-2
1.169192874E0,1.238333434E-2,-3.781577200E-2,8.521864191E-3,4.069400141E-2
1.171692302E0,1.344856713E-2,-3.355484083E-2,5.326164886E-3,3.653983215E-2
1.174191781E0,1.131810062E-2,-3.142437339E-2,6.391398143E-3,3.400647901E-2
1.176691208E0,7.057168987E-3,-2.503297664E-2,7.456631400E-3,2.705651318E-2
1.179190635E0,9.187635034E-3,-2.503297664E-2,4.260932095E-3,2.700403858E-2
1.181833499E0,8.122402243E-3,-1.877473295E-2,4.260932095E-3,2.089544347E-2
1.184332927E0,2.796236658E-3,-1.770949923E-2,3.195699072E-3,1.821147426E-2
1.186832354E0,-3.994623839E-4,-2.396774292E-2,2.130466048E-3,2.406555955E-2
1.189331833E0,-3.994623839E-4,-2.197043039E-2,2.130466048E-3,2.207709825E-2
1.191831260E0,-3.994623839E-4,-2.396774292E-2,1.065233024E-3,2.399472843E-2
1.194330687E0,-9.986559860E-3,-2.503297664E-2,-1.065233024E-3,2.697250487E-2
1.196830114E0,-1.211702544E-2,-2.090519853E-2,0.000000000E0,2.416298059E-2
1.199329593E0,-1.318225823E-2,-2.090519853E-2,1.065233024E-3,2.473729935E-2
1.201829020E0,-8.921326138E-3,-1.664426550E-2,1.065233024E-3,1.891444833E-2
1.204328499E0,-1.105179265E-2,-1.131810062E-2,1.065233024E-3,1.585484922E-2
1.206827927E0,-1.744319126E-2,-1.664426550E-2,1.065233024E-3,2.413361177E-2
1.209327354E0,-2.063889056E-2,-1.557903271E-2,1.065233024E-3,2.588058704E-2
1.211976208E0,-2.383458801E-2,-1.131810062E-2,2.130466048E-3,2.647122726E-2
1.214475635E0,-2.063889056E-2,-5.991935730E-3,3.195699072E-3,2.172739262E-2
1.216975062E0,-2.170412242E-2,-2.796236658E-3,1.065233024E-3,2.190941786E-2
1.219474541E0,-1.957365684E-2,-6.657706108E-4,1.065233024E-3,1.961392398E-2
1.221973968E0,-2.276935615E-2,3.595161485E-3,4.260932095E-3,2.344193481E-2
1.224473395E0,-2.596505545E-2,5.725627299E-3,3.195699072E-3,2.678020547E-2
1.226972822E0,-2.902759984E-2,-2.796236658E-3,1.065233024E-3,2.918141898E-2
1.229472302E0,-2.276935615E-2,3.994623839E-4,5.326164886E-3,2.338741503E-2
1.231971729E0,-2.276935615E-2,3.994623839E-4,4.260932095E-3,2.316805326E-2
1.234471156E0,-2.489982173E-2,-6.657706108E-4,1.065233024E-3,2.493148800E-2
1.236970635E0,-2.276935615E-2,-2.796236658E-3,5.326164886E-3,2.355059556E-2
1.239470062E0,-1.637795754E-2,-3.861469682E-3,9.587096982E-3,1.936648832E-2
1.242110531E0,-1.424749196E-2,1.464695437E-3,1.065232977E-2,1.784960754E-2
1.244609958E0,-1.531272475E-2,-6.657706108E-4,7.456631400E-3,1.704476874E-2
1.247109385E0,-9.986559860E-3,-7.057168987E-3,1.171756350E-2,1.693624239E-2
1.249608864E0,-9.986559860E-3,-8.122402243E-3,7.456631400E-3,1.487636205E-2
1.252108291E0,-6.790860556E-3,-1.025286783E-2,5.326164886E-3,1.340168341E-2
1.254607718E0,-3.595161485E-3,-1.344856713E-2,8.521864191E-3,1.632211118E-2
1.257107197E0,-1.464695437E-3,-1.131810062E-2,1.384802908E-2,1.794471074E-2
1.259606624E0,-2.529928461E-3,-8.122402243E-3,1.384802908E-2,1.625244183E-2
1.262106052E0,1.731003635E-3,-2.796236658E-3,1.278279629E-2,1.319906034E-2
1.264605531E0,4.926702939E-3,1.464695437E-3,8.521864191E-3,9.951879413E-3
1.267104958E0,1.238333434E-2,-3.861469682E-3,9.587096982E-3,1.612979684E-2
1.269604385E0,1.238333434E-2,3.994623839E-4,1.384802908E-2,1.858156207E-2
1.272248812E0,1.451379992E-2,6.790860556E-3,1.491326280E-2,2.188998818E-2
1.274748239E0,2.090519853E-2,1.318225823E-2,1.810896210E-2,3.063876248E-2
1.277247666E0,1.983996481E-2,1.850842312E-2,1.704372838E-2,3.204176348E-2
1.279747145E0,2.410089783E-2,1.850842312E-2,1.597849466E-2,3.433259813E-2
1.282246572E0,2.516612969E-2,2.916075476E-2,1.704372838E-2,4.212092566E-2
1.284745999E0,2.729659714E-2,3.448691964E-2,1.704372838E-2,4.716927516E-2
1.287245479E0,2.623136342E-2,3.022598661E-2,1.917419396E-2,4.437729608E-2
1.289744906E0,3.049229458E-2,2.916075476E-2,1.597849466E-2,4.511587235E-2
1.292244333E0,3.155753016E-2,2.703028731E-2,2.023942769E-2,4.621848737E-2
1.294743812E0,2.836182900E-2,2.383458801E-2,1.278279629E-2,3.919031526E-2
1.297243239E0,2.836182900E-2,1.211702544E-2,8.521864191E-3,3.199746582E-2
1.299742666E0,3.155753016E-2,2.529928461E-3,1.171756350E-2,3.375765902E-2
1.302386312E0,3.049229458E-2,3.994623839E-4,1.171756350E-2,3.266865307E-2
1.304885739E0,2.623136342E-2,-1.025286783E-2,9.587096982E-3,2.975093534E-2
1.307385166E0,2.623136342E-2,-2.396774292E-2,8.521864191E-3,3.653983164E-2
1.309884645E0,2.623136342E-2,-2.929390781E-2,6.391398143E-3,3.983801490E-2
1.312384072E0,2.836182900E-2,-3.462007269E-2,4.260932095E-3,4.495662709E-2
1.314883499E0,1.770949923E-2,-3.675054014E-2,2.130466048E-3,4.085055016E-2
1.317382979E0,1.664426550E-2,-3.675054014E-2,1.065233024E-3,4.035800411E-2
1.319882406E0,1.451379992E-2,-3.888100386E-2,1.065233024E-3,4.151526912E-2
1.322381833E0,1.344856713E-2,-2.822867595E-2,0.000000000E0,3.126854815E-2
1.324881312E0,1.131810062E-2,-2.609820850E-2,5.326164886E-3,2.894104215E-2
1.327380739E0,5.991935730E-3,-3.142437339E-2,-2.130466048E-3,3.206140081E-2
1.329880166E0,4.926702939E-3,-3.035914153E-2,-1.065233024E-3,3.077473960E-2
1.332504697E0,-1.464695437E-3,-2.716344222E-2,0.000000000E0,2.720290290E-2
1.335004124E0,-3.994623839E-4,-2.609820850E-2,-1.065233024E-3,2.612299329E-2
1.337503552E0,6.657706108E-4,-2.197043039E-2,1.065233024E-3,2.200631235E-2
1.340003031E0,-4.660394508E-3,-2.290250920E-2,-2.130466048E-3,2.346876840E-2
1.342502458E0,-6.790860556E-3,-1.770949923E-2,-2.130466048E-3,1.908614774E-2
1.345001885E0,-1.531272475E-2,-2.290250920E-2,-3.195699072E-3,2.773476085E-2
1.347501364E0,-1.637795754E-2,-2.929390781E-2,-5.326164886E-3,3.398144435E-2
1.350000791E0,-1.850842312E-2,-3.462007269E-2,-2.130466048E-3,3.931475607E-2
1.352500218E0,-1.957365684E-2,-3.462007269E-2,-2.130466048E-3,3.982733183E-2
1.354999697E0,-2.276935615E-2,-3.142437339E-2,-6.391398143E-3,3.932918500E-2
1.357499124E0,-2.383458801E-2,-3.035914153E-2,-5.326164886E-3,3.896322744E-2
1.359998552E0,-2.902759984E-2,-2.929390781E-2,-6.391398143E-3,4.173229633E-2
1.362637145E0,-2.796236612E-2,-1.770949923E-2,-5.326164886E-3,3.352444353E-2
1.365136572E0,-3.009283356E-2,-1.770949923E-2,-4.260932095E-3,3.517613590E-2
1.367635999E0,-3.009283356E-2,-1.983996481E-2,-4.260932095E-3,3.629543191E-2
1.370135479E0,-3.222329915E-2,-1.451379992E-2,-5.326164886E-3,3.574016548E-2
1.372634906E0,-3.009283356E-2,-8.122402243E-3,-5.326164886E-3,3.162151297E-2
1.375134333E0,-3.009283356E-2,-6.657706108E-4,-5.326164886E-3,3.056779212E-2
1.377633812E0,-3.222329915E-2,1.464695437E-3,-3.195699072E-3,3.241448493E-2
1.380133239E0,-2.796236612E-2,7.856093347E-3,-3.195699072E-3,2.922027745E-2
1.382632666E0,-2.902759984E-2,1.850842312E-2,-3.195699072E-3,3.457420674E-2
1.385132145E0,-2.489982173E-2,1.850842312E-2,-5.326164886E-3,3.147905464E-2
1.387631572E0,-2.489982173E-2,1.744319126E-2,0.000000000E0,3.040174409E-2
1.390130999E0,-2.383458801E-2,1.531272475E-2,-4.260932095E-3,2.864825766E-2
1.392767770E0,-2.276935615E-2,1.744319126E-2,-2.130466048E-3,2.876190860E-2
1.395267197E0,-2.063889056E-2,1.957365684E-2,0.000000000E0,2.844453983E-2
1.397766624E0,-1.637795754E-2,1.318225823E-2,-1.065233024E-3,2.105098921E-2
1.400266104E0,-1.211702544E-2,8.921326138E-3,1.065233024E-3,1.508466397E-2
1.402765531E0,-8.921326138E-3,1.318225823E-2,0.000000000E0,1.591734878E-2
1.405264958E0,-8.921326138E-3,9.986559860E-3,-1.065233024E-3,1.343339716E-2
1.407764437E0,-4.660394508E-3,2.529928461E-3,0.000000000E0,5.302811989E-3
1.410263864E0,2.796236658E-3,3.994623839E-4,3.195699072E-3,4.265091113E-3
1.412763291E0,4.926702939E-3,-3.861469682E-3,2.130466048E-3,6.612279148E-3
1.415262770E0,7.057168987E-3,-3.861469682E-3,1.065233024E-3,8.114758383E-3
1.417762197E0,1.025286783E-2,3.994623839E-4,4.260932095E-3,1.111019402E-2
1.420261624E0,1.664426550E-2,3.994623839E-4,4.260932095E-3,1.718565351E-2
1.422904697E0,1.983996481E-2,1.105179265E-2,5.326164886E-3,2.332668765E-2
1.425404124E0,2.197043039E-2,1.637795754E-2,7.456631400E-3,2.839962423E-2
1.427903552E0,2.303566411E-2,9.986559860E-3,5.326164886E-3,2.566595471E-2
1.430403031E0,2.410089783E-2,1.318225823E-2,5.326164886E-3,2.798201638E-2
1.432902458E0,2.623136342E-2,1.105179265E-2,5.326164886E-3,2.895849754E-2
1.435401885E0,2.623136342E-2,1.105179265E-2,6.391398143E-3,2.917321576E-2
1.437901364E0,2.836182900E-2,1.637795754E-2,5.326164886E-3,3.318130301E-2
1.440400791E0,3.368799388E-2,1.211702544E-2,8.521864191E-3,3.680116040E-2
1.442900218E0,3.155753016E-2,1.850842312E-2,8.521864191E-3,3.756409996E-2
1.445399697E0,2.836182900E-2,1.850842312E-2,5.326164886E-3,3.428298562E-2
1.447899124E0,2.410089783E-2,1.531272475E-2,4.260932095E-3,2.887019844E-2
1.450398552E0,2.410089783E-2,1.850842312E-2,5.326164886E-3,3.085098111E-2
1.453043604E0,2.410089783E-2,2.383458801E-2,9.587096982E-3,3.522574755E-2
1.455543031E0,2.410089783E-2,2.703028731E-2,5.326164886E-3,3.660406727E-2
1.458042458E0,2.729659714E-2,2.596505545E-2,4.260932095E-3,3.791363689E-2
1.460541937E0,2.303566411E-2,2.703028731E-2,5.326164886E-3,3.591164554E-2
1.463041364E0,1.770949923E-2,3.342168778E-2,6.391398143E-3,3.835994717E-2
1.465540791E0,1.664426550E-2,3.235645220E-2,-1.065233024E-3,3.640200948E-2
1.468040270E0,1.451379992E-2,2.916075476E-2,0.000000000E0,3.257299504E-2
1.470539697E0,5.991935730E-3,2.916075476E-2,2.130466048E-3,2.984613538E-2
1.473039124E0,4.926702939E-3,2.596505545E-2,0.000000000E0,2.642832773E-2
1.475538604E0,3.861469682E-3,2.809552103E-2,-1.065233024E-3,2.837964009E-2
1.478038031E0,2.796236658E-3,2.596505545E-2,-4.260932095E-3,2.646050994E-2
1.480537458E0,-3.994623839E-4,2.703028731E-2,-5.326164886E-3,2.755293151E-2
1.483172249E0,-3.994623839E-4,3.661738336E-2,1.065233024E-3,3.663505228E-2
1.485671677E0,-5.725627299E-3,3.342168778E-2,-2.130466048E-3,3.397544566E-2
1.488171104E0,-4.660394508E-3,2.383458801E-2,-3.195699072E-3,2.449529251E-2
1.490670583E0,-4.660394508E-3,2.596505545E-2,-7.456631400E-3,2.741358666E-2
1.493170010E0,-5.725627299E-3,2.809552103E-2,-5.326164886E-3,2.916348989E-2
1.495669437E0,-2.529928461E-3,3.448691964E-2,-7.456631400E-3,3.537441895E-2
1.498168916E0,-4.660394508E-3,2.703028731E-2,-6.391398143E-3,2.816390739E-2
1.500668343E0,-2.529928461E-3,3.129122034E-2,-5.326164886E-3,3.184193839E-2
1.503167770E0,-8.921326138E-3,3.342168778E-2,-5.326164886E-3,3.499953295E-2
1.505667249E0,-4.660394508E-3,3.342168778E-2,-3.195699072E-3,3.389603198E-2
1.508166677E0,-5.725627299E-3,2.703028731E-2,-3.195699072E-3,2.781423615E-2
1.510666104E0,-6.790860556E-3,2.809552103E-2,-7.456631400E-3,2.985088677E-2
1.513303343E0,-7.856093347E-3,2.703028731E-2,-6.391398143E-3,2.886528373E-2
1.515802770E0,-2.529928461E-3,2.383458801E-2,-1.065232977E-2,2.622899642E-2
1.518302197E0,-3.994623839E-4,2.383458801E-2,-4.260932095E-3,2.421575309E-2
1.520801624E0,-2.529928461E-3,1.637795754E-2,-6.391398143E-3,1.776198191E-2
1.523301104E0,2.796236658E-3,1.957365684E-2,-4.260932095E-3,2.022628300E-2
1.525800531E0,-3.994623839E-4,1.744319126E-2,-5.326164886E-3,1.824260190E-2
1.528299958E0,3.861469682E-3,3.595161485E-3,-6.391398143E-3,8.287708032E-3
1.530799437E0,6.657706108E-4,2.529928461E-3,-8.521864191E-3,8.914368054E-3
1.533298864E0,2.796236658E-3,2.529928461E-3,-5.326164886E-3,6.525910654E-3
1.535798291E0,4.926702939E-3,5.725627299E-3,-6.391398143E-3,9.894704647E-3
1.538297718E0,4.926702939E-3,2.529928461E-3,-8.521864191E-3,1.016342015E-2
1.540797197E0,5.991935730E-3,5.725627299E-3,-6.391398143E-3,1.046594821E-2
1.543432145E0,7.057168987E-3,1.424749196E-2,-3.195699072E-3,1.621749530E-2
1.545931572E0,8.122402243E-3,1.531272475E-2,-6.391398143E-3,1.847438572E-2
1.548430999E0,8.122402243E-3,1.105179265E-2,-4.260932095E-3,1.436214056E-2
1.550930479E0,1.344856713E-2,1.424749196E-2,-2.130466048E-3,1.970771094E-2
1.553429906E0,1.025286783E-2,1.531272475E-2,-2.130466048E-3,1.855100330E-2
1.555929333E0,1.344856713E-2,2.063889056E-2,1.065233024E-3,2.465689524E-2
1.558428760E0,5.991935730E-3,2.276935615E-2,-4.260932095E-3,2.392702270E-2
1.560928239E0,1.731003635E-3,2.596505545E-2,-4.260932095E-3,2.636922487E-2
1.563427666E0,3.861469682E-3,3.129122034E-2,-3.195699072E-3,3.169012324E-2
1.565927093E0,3.861469682E-3,3.448691964E-2,-1.065233024E-3,3.471877440E-2
1.568426572E0,6.657706108E-4,2.916075476E-2,1.065233024E-3,2.918779865E-2
1.570925999E0,1.731003635E-3,3.448691964E-2,0.000000000E0,3.453033449E-2
1.573560583E0,2.796236658E-3,3.235645220E-2,-1.065233024E-3,3.249451738E-2
1.576062354E0,1.731003635E-3,2.916075476E-2,3.195699072E-3,2.938636561E-2
1.578564124E0,1.731003635E-3,3.342168778E-2,5.326164886E-3,3.388766177E-2
1.581065947E0,-3.994623839E-4,3.022598661E-2,2.130466048E-3,3.030360907E-2
1.583567666E0,4.926702939E-3,3.555215150E-2,3.195699072E-3,3.603387810E-2
1.586069437E0,2.796236658E-3,3.555215150E-2,1.065233024E-3,3.567785219E-2
1.588571208E0,-4.660394508E-3,3.022598661E-2,3.195699072E-3,3.074966726E-2
1.591073031E0,-5.725627299E-3,3.129122034E-2,5.326164886E-3,3.225354726E-2
1.593574749E0,-2.529928461E-3,3.342168778E-2,3.195699072E-3,3.366930716E-2
1.596076572E0,-4.660394508E-3,3.342168778E-2,4.260932095E-3,3.401299801E-2
1.598578291E0,-2.529928461E-3,3.448691964E-2,9.587096982E-3,3.588398797E-2
1.601080114E0,-3.595161485E-3,2.596505545E-2,3.195699072E-3,2.640685107E-2
1.603694281E0,1.731003635E-3,2.703028731E-2,5.326164886E-3,2.760436266E-2
1.606196052E0,-2.529928461E-3,2.063889056E-2,2.130466048E-3,2.090223020E-2
1.608697822E0,-2.529928461E-3,1.211702544E-2,3.195699072E-3,1.278418305E-2
1.611199593E0,-3.595161485E-3,4.660394508E-3,2.130466048E-3,6.259660426E-3
1.613701364E0,-7.856093347E-3,-2.796236658E-3,4.260932095E-3,9.364437220E-3
1.616203135E0,-3.595161485E-3,-8.122402243E-3,6.391398143E-3,1.094296918E-2
1.618704906E0,-2.529928461E-3,-1.451379992E-2,2.130466048E-3,1.488589304E-2
1.621206677E0,-3.595161485E-3,-1.664426550E-2,-2.130466048E-3,1.716087544E-2
1.623708447E0,-2.529928461E-3,-1.451379992E-2,-1.065233024E-3,1.477110854E-2
1.626210218E0,-2.529928461E-3,-1.557903271E-2,2.130466048E-3,1.592625768E-2
1.628711989E0,-5.725627299E-3,-2.929390781E-2,0.000000000E0,2.984821339E-2
1.631213760E0,-5.725627299E-3,-2.716344222E-2,-2.130466048E-3,2.784195193E-2
1.633829593E0,-2.529928461E-3,-2.503297664E-2,-1.065233024E-3,2.518303355E-2
1.636331364E0,-3.595161485E-3,-2.396774292E-2,-4.260932095E-3,2.460758885E-2
1.638833187E0,-3.595161485E-3,-2.609820850E-2,-2.130466048E-3,2.643067458E-2
1.641334906E0,-2.529928461E-3,-2.609820850E-2,-4.260932095E-3,2.656449825E-2
1.643836677E0,-1.464695437E-3,-2.090519853E-2,-7.456631400E-3,2.224351614E-2
1.646338447E0,-4.660394508E-3,-1.664426550E-2,-4.260932095E-3,1.780186489E-2
1.648840218E0,-6.790860556E-3,-2.090519853E-2,-4.260932095E-3,2.238969975E-2
1.651341989E0,-4.660394508E-3,-1.770949923E-2,-6.391398143E-3,1.939576268E-2
1.653843760E0,-2.529928461E-3,-1.451379992E-2,-6.391398143E-3,1.605929315E-2
1.656345531E0,-2.529928461E-3,-8.122402243E-3,-4.260932095E-3,9.514699078E-3
1.658847302E0,-3.595161485E-3,-5.991935730E-3,-5.326164886E-3,8.786154579E-3
1.661349072E0,-6.790860556E-3,-3.861469682E-3,-8.521864191E-3,1.156066194E-2
1.663968604E0,-4.660394508E-3,3.595161485E-3,-5.326164886E-3,7.938041035E-3
1.666470374E0,-5.725627299E-3,4.660394508E-3,-5.326164886E-3,9.103302551E-3
1.668972145E0,-3.595161485E-3,-2.796236658E-3,-9.587096982E-3,1.061397918E-2
1.671473916E0,-6.790860556E-3,-5.991935730E-3,-8.521864191E-3,1.243548351E-2
1.673975687E0,-6.790860556E-3,-6.657706108E-4,-4.260932095E-3,8.044537272E-3
1.676477458E0,-6.790860556E-3,-4.926702939E-3,-4.260932095E-3,9.409767864E-3
1.678979229E0,-8.921326138E-3,-2.796236658E-3,-4.260932095E-3,1.027446066E-2
1.681480999E0,-9.986559860E-3,-6.657706108E-4,1.065233024E-3,1.006525458E-2
1.683982770E0,-6.790860556E-3,4.660394508E-3,-1.065233024E-3,8.304804962E-3
1.686484541E0,-9.986559860E-3,5.725627299E-3,-1.065233024E-3,1.156066206E-2
1.688986312E0,-1.105179265E-2,2.529928461E-3,1.065233024E-3,1.138759765E-2
1.691488083E0,-5.725627299E-3,5.725627299E-3,-3.195699072E-3,8.705062234E-3
1.694091572E0,-2.529928461E-3,1.211702544E-2,-4.260932095E-3,1.309115678E-2
1.696593343E0,-1.464695437E-3,1.850842312E-2,-1.065233024E-3,1.859682178E-2
1.699095114E0,-6.790860556E-3,1.850842312E-2,0.000000000E0,1.971490587E-2
1.701596937E0,-3.595161485E-3,1.744319126E-2,1.065233024E-3,1.784165992E-2
1.704098656E0,-3.994623839E-4,2.703028731E-2,2.130466048E-3,2.711705898E-2
1.706600427E0,-2.529928461E-3,3.129122034E-2,1.065233024E-3,3.141139490E-2
1.709102197E0,-7.856093347E-3,2.596505545E-2,6.391398143E-3,2.787027588E-2
1.711603968E0,-2.529928461E-3,2.809552103E-2,6.391398143E-3,2.892419075E-2
1.714105739E0,6.657706108E-4,3.022598661E-2,4.260932095E-3,3.053209884E-2
1.716607562E0,6.657706108E-4,3.342168778E-2,4.260932095E-3,3.369878346E-2
1.719109333E0,-5.725627299E-3,3.022598661E-2,5.326164886E-3,3.122116441E-2
1.721611104E0,-3.994623839E-4,2.703028731E-2,8.521864191E-3,2.834463215E-2
1.724227197E0,-2.529928461E-3,3.235645220E-2,2.130466048E-3,3.252505838E-2
1.726728968E0,-1.464695437E-3,2.703028731E-2,4.260932095E-3,2.740323534E-2
1.729230739E0,-3.994623839E-4,1.744319126E-2,6.391398143E-3,1.858156241E-2
1.731732510E0,-3.994623839E-4,1.531272475E-2,5.326164886E-3,1.621749493E-2
1.734234281E0,-1.464695437E-3,1.531272475E-2,8.521864191E-3,1.758542127E-2
1.736736052E0,-3.994623839E-4,1.424749196E-2,7.456631400E-3,1.608576853E-2
1.739237822E0,-2.529928461E-3,1.211702544E-2,4.260932095E-3,1.309115678E-2
1.741739593E0,-3.595161485E-3,8.921326138E-3,9.587096982E-3,1.358041512E-2
1.744241364E0,-3.595161485E-3,1.424749196E-2,7.456631400E-3,1.647779005E-2
1.746743135E0,-2.529928461E-3,1.424749196E-2,7.456631400E-3,1.627860304E-2
1.749244958E0,6.657706108E-4,8.921326138E-3,4.260932095E-3,9.909028857E-3
1.751746677E0,-4.660394508E-3,1.105179265E-2,6.391398143E-3,1.359085604E-2
1.754360427E0,-4.660394508E-3,1.318225823E-2,7.456631400E-3,1.584590045E-2
1.756862249E0,-2.529928461E-3,8.921326138E-3,4.260932095E-3,1.020520163E-2
1.759364020E0,-1.464695437E-3,1.531272475E-2,1.065233024E-3,1.541945503E-2
1.761865739E0,-3.994623839E-4,1.318225823E-2,4.260932095E-3,1.385954706E-2
1.764367510E0,6.657706108E-4,1.637795754E-2,7.456631400E-3,1.800783428E-2
1.766869333E0,-3.994623839E-4,1.744319126E-2,4.260932095E-3,1.796051318E-2
1.769371104E0,-2.529928461E-3,8.921326138E-3,3.195699072E-3,9.808317421E-3
1.771872874E0,6.657706108E-4,4.660394508E-3,4.260932095E-3,6.349651156E-3
1.774374593E0,3.861469682E-3,4.660394508E-3,4.260932095E-3,7.401740836E-3
1.776876416E0,6.657706108E-4,2.529928461E-3,3.195699072E-3,4.129925069E-3
1.779378187E0,-3.994623839E-4,-5.991935730E-3,2.130466048E-3,6.371950217E-3
1.781879958E0,3.861469682E-3,-1.131810062E-2,7.456631400E-3,1.409296638E-2
1.784493239E0,1.731003635E-3,-8.122402243E-3,4.260932095E-3,9.334095248E-3
1.786995010E0,1.731003635E-3,-1.238333434E-2,3.195699072E-3,1.290565130E-2
1.789496781E0,-2.529928461E-3,-2.090519853E-2,1.065233024E-3,2.108465283E-2
1.791998604E0,3.861469682E-3,-2.197043039E-2,1.065233024E-3,2.233261026E-2
1.794500322E0,2.796236658E-3,-2.090519853E-2,0.000000000E0,2.109137893E-2
1.797002093E0,2.796236658E-3,-1.770949923E-2,0.000000000E0,1.792889573E-2
1.799503864E0,1.025286783E-2,-1.238333434E-2,3.195699072E-3,1.639148439E-2
1.802005687E0,5.991935730E-3,-1.131810062E-2,-2.130466048E-3,1.298235652E-2
1.804507458E0,9.187635034E-3,-3.861469682E-3,-1.065233024E-3,1.002288916E-2
1.807009177E0,4.926702939E-3,3.994623839E-4,0.000000000E0,4.942870830E-3
1.809510999E0,3.861469682E-3,-6.657706108E-4,3.195699072E-3,5.056351567E-3
1.812012770E0,2.796236658E-3,6.790860556E-3,6.391398143E-3,9.735743257E-3
1.814627093E0,6.657706108E-4,1.105179265E-2,1.065233024E-3,1.112295342E-2
1.817128812E0,2.796236658E-3,1.531272475E-2,2.130466048E-3,1.571105866E-2
1.819630635E0,-3.994623839E-4,1.531272475E-2,3.195699072E-3,1.564773472E-2
1.822132406E0,-1.464695437E-3,1.850842312E-2,2.130466048E-3,1.868812309E-2
1.824634124E0,-1.464695437E-3,2.809552103E-2,3.195699072E-3,2.831459213E-2
1.827135895E0,-4.660394508E-3,2.916075476E-2,1.065233024E-3,2.955001889E-2
1.829637718E0,-5.725627299E-3,2.489982173E-2,-2.130466048E-3,2.563830758E-2
1.832139489E0,-2.529928461E-3,2.596505545E-2,-1.065233024E-3,2.610975611E-2
1.834641260E0,-3.595161485E-3,2.383458801E-2,-1.065233024E-3,2.412773286E-2
1.837142979E0,-3.994623839E-4,2.276935615E-2,-4.260932095E-3,2.316805326E-2
1.839644749E0,-6.790860556E-3,2.170412242E-2,2.130466048E-3,2.284126973E-2
1.842146572E0,-3.994623839E-4,1.744319126E-2,-1.065233024E-3,1.748025208E-2
1.844760479E0,-1.464695437E-3,2.596505545E-2,-1.065233024E-3,2.602814167E-2
1.847262249E0,-2.529928461E-3,2.703028731E-2,1.065233024E-3,2.716931526E-2
1.849764020E0,-2.529928461E-3,2.170412242E-2,1.065233024E-3,2.187702424E-2
1.852265843E0,1.731003635E-3,2.170412242E-2,-1.065233024E-3,2.179908313E-2
1.854767562E0,-3.994623839E-4,2.170412242E-2,-3.195699072E-3,2.194176367E-2
1.857269385E0,-3.994623839E-4,2.063889056E-2,-2.130466048E-3,2.075240370E-2
1.859771104E0,6.657706108E-4,1.957365684E-2,-1.065233024E-3,1.961392398E-2
1.862272874E0,6.657706108E-4,1.744319126E-2,-6.391398143E-3,1.858919423E-2
1.864774645E0,-1.464695437E-3,1.850842312E-2,-5.326164886E-3,1.931515186E-2
1.867276416E0,-1.464695437E-3,1.850842312E-2,-2.130466048E-3,1.868812309E-2
1.869778187E0,-3.595161485E-3,8.921326138E-3,-3.195699072E-3,1.013546934E-2
1.872280010E0,-5.725627299E-3,7.856093347E-3,-3.195699072E-3,1.023296160E-2
1.874904593E0,-2.529928461E-3,4.660394508E-3,-1.065233024E-3,5.408746286E-3
1.877406364E0,-1.464695437E-3,-3.861469682E-3,-2.130466048E-3,4.647059975E-3
1.879908135E0,-4.660394508E-3,-8.122402243E-3,-2.130466048E-3,9.603727441E-3
1.882409958E0,-3.595161485E-3,-1.557903271E-2,-4.260932095E-3,1.654650986E-2
1.884911677E0,-7.856093347E-3,-1.025286783E-2,-4.260932095E-3,1.360128831E-2
1.887413447E0,-2.529928461E-3,-5.991935730E-3,0.000000000E0,6.504139590E-3
1.889915218E0,-5.725627299E-3,-1.664426550E-2,2.130466048E-3,1.773001037E-2
1.892416989E0,-6.790860556E-3,-1.664426550E-2,-1.065233024E-3,1.800783392E-2
1.894918760E0,-4.660394508E-3,-1.025286783E-2,-2.130466048E-3,1.146208799E-2
1.897420531E0,-5.725627299E-3,-8.122402243E-3,-4.260932095E-3,1.081257455E-2
1.899922354E0,-6.790860556E-3,-4.926702939E-3,-2.130466048E-3,8.656042659E-3
1.902424072E0,-6.790860556E-3,-3.861469682E-3,-3.195699072E-3,8.440333391E-3
1.905041468E0,-5.725627299E-3,4.660394508E-3,2.130466048E-3,7.683812239E-3
1.907543239E0,-6.790860556E-3,7.856093347E-3,2.130466048E-3,1.060060731E-2
1.910045010E0,-4.660394508E-3,-6.657706108E-4,0.000000000E0,4.707709367E-3
1.912546781E0,-5.725627299E-3,-6.657706108E-4,-1.065233024E-3,5.861806878E-3
1.915048552E0,-3.595161485E-3,-6.657706108E-4,2.130466048E-3,4.231704407E-3
1.917550322E0,-5.725627299E-3,-4.926702939E-3,3.195699072E-3,8.201688995E-3
1.920052145E0,-4.660394508E-3,-8.122402243E-3,4.260932095E-3,1.028825726E-2
1.922553864E0,-3.595161485E-3,-5.991935730E-3,4.260932095E-3,8.184376715E-3
1.925055635E0,-1.464695437E-3,3.994623839E-4,6.391398143E-3,6.569236877E-3
1.927557406E0,-3.595161485E-3,-3.861469682E-3,7.456631400E-3,9.134412189E-3
1.930059177E0,-4.660394508E-3,-8.122402243E-3,8.521864191E-3,1.266155063E-2
1.932560947E0,-2.529928461E-3,-4.926702939E-3,6.391398143E-3,8.457121856E-3
1.935162874E0,-1.464695437E-3,-2.796236658E-3,6.391398143E-3,7.128410931E-3
1.937664645E0,-4.660394508E-3,3.994623839E-4,9.587096982E-3,1.066729936E-2
1.940166416E0,-3.994623839E-4,2.529928461E-3,7.456631400E-3,7.884253931E-3
1.942668187E0,-1.464695437E-3,3.595161485E-3,5.326164886E-3,6.590792913E-3
1.945169958E0,-3.994623839E-4,1.744319126E-2,9.587096982E-3,1.990821238E-2
1.947671729E0,-2.529928461E-3,2.063889056E-2,9.587096982E-3,2.289709087E-2
1.950173499E0,-1.464695437E-3,1.637795754E-2,8.521864191E-3,1.852039403E-2
1.952675270E0,-4.660394508E-3,2.276935615E-2,8.521864191E-3,2.475449506E-2
1.955177041E0,6.657706108E-4,2.383458801E-2,6.391398143E-3,2.468563967E-2
1.957678812E0,6.657706108E-4,2.489982173E-2,7.456631400E-3,2.600087930E-2
1.960180583E0,6.657706108E-4,2.703028731E-2,6.391398143E-3,2.778362202E-2
1.962682354E0,-3.994623839E-4,2.809552103E-2,5.326164886E-3,2.859870460E-2
1.965296468E0,4.926702939E-3,3.555215150E-2,7.456631400E-3,3.665827642E-2
1.967798239E0,4.926702939E-3,3.342168778E-2,6.391398143E-3,3.438214051E-2
1.970300010E0,5.991935730E-3,2.703028731E-2,7.456631400E-3,2.867300259E-2
1.972801781E0,1.131810062E-2,3.022598661E-2,7.456631400E-3,3.312568520E-2
1.975303552E0,1.344856713E-2,2.703028731E-2,5.326164886E-3,3.065727356E-2
1.977805374E0,1.344856713E-2,2.489982173E-2,3.195699072E-3,2.847942367E-2
1.980307093E0,1.451379992E-2,2.916075476E-2,9.587096982E-3,3.395456427E-2
1.982808864E0,1.344856713E-2,2.596505545E-2,4.260932095E-3,2.955001869E-2
1.985310635E0,1.451379992E-2,3.235645220E-2,3.195699072E-3,3.560621967E-2
1.987812406E0,1.451379992E-2,2.916075476E-2,5.326164886E-3,3.300557587E-2
1.990314177E0,1.238333434E-2,2.489982173E-2,6.391398143E-3,2.853415605E-2
1.992815947E0,1.451379992E-2,2.489982173E-2,5.326164886E-3,2.930903517E-2
1.995431156E0,1.664426550E-2,2.596505545E-2,5.326164886E-3,3.129830205E-2
1.997932927E0,1.131810062E-2,2.276935615E-2,4.260932095E-3,2.578174787E-2
2.000434697E0,1.770949923E-2,2.489982173E-2,3.195699072E-3,3.072197874E-2
2.002936468E0,1.344856713E-2,2.170412242E-2,1.065233024E-3,2.555518752E-2
2.005438239E0,1.025286783E-2,2.489982173E-2,2.130466048E-3,2.701224364E-2
2.007940010E0,5.991935730E-3,2.276935615E-2,4.260932095E-3,2.392702270E-2
2.010441781E0,4.926702939E-3,1.424749196E-2,4.260932095E-3,1.566585367E-2
2.012943552E0,-3.994623839E-4,1.744319126E-2,5.326164886E-3,1.824260190E-2
2.015445322E0,6.657706108E-4,1.637795754E-2,1.065233024E-3,1.642606054E-2
2.017947093E0,-1.464695437E-3,1.744319126E-2,0.000000000E0,1.750457809E-2
2.020448864E0,-2.529928461E-3,1.105179265E-2,-3.195699072E-3,1.177943765E-2
2.022950635E0,-5.725627299E-3,1.318225823E-2,2.130466048E-3,1.452906142E-2
2.025563239E0,-1.211702544E-2,1.850842312E-2,2.130466048E-3,2.222437665E-2
2.028064958E0,-1.318225823E-2,1.744319126E-2,-1.065233024E-3,2.188998801E-2
2.030566729E0,-1.850842312E-2,1.105179265E-2,-5.326164886E-3,2.220522190E-2
2.033068552E0,-2.063889056E-2,8.921326138E-3,-5.326164886E-3,2.310675001E-2
2.035570322E0,-1.211702544E-2,1.105179265E-2,-2.130466048E-3,1.653793554E-2
2.038072041E0,-2.063889056E-2,8.921326138E-3,-1.065233024E-3,2.250974423E-2
2.040573864E0,-2.170412242E-2,3.994623839E-4,-3.195699072E-3,2.194176367E-2
2.043075583E0,-2.689713426E-2,1.464695437E-3,-5.326164886E-3,2.745849953E-2
2.045577406E0,-2.063889056E-2,8.921326138E-3,-7.456631400E-3,2.368871494E-2
2.048079177E0,-1.850842312E-2,8.921326138E-3,-8.521864191E-3,2.224351491E-2
2.050580947E0,-1.957365684E-2,2.529928461E-3,-6.391398143E-3,2.074556701E-2
2.053082666E0,-1.531272475E-2,6.790860556E-3,-5.326164886E-3,1.757735357E-2
2.055696624E0,-1.957365684E-2,5.725627299E-3,-2.130466048E-3,2.050487102E-2
2.058198343E0,-1.744319126E-2,5.725627299E-3,-6.391398143E-3,1.943959103E-2
2.060700166E0,-1.637795754E-2,8.921326138E-3,-1.065232977E-2,2.147788823E-2
2.063201885E0,-1.424749196E-2,8.921326138E-3,-7.456631400E-3,1.838973733E-2
2.065703656E0,-1.105179265E-2,1.211702544E-2,-4.260932095E-3,1.694461474E-2
2.068205427E0,-9.986559860E-3,1.318225823E-2,-6.391398143E-3,1.773001072E-2
2.070707197E0,-6.790860556E-3,6.790860556E-3,-3.195699072E-3,1.012146564E-2
2.073208968E0,-7.856093347E-3,8.921326138E-3,0.000000000E0,1.188731520E-2
2.075710739E0,-4.660394508E-3,5.725627299E-3,1.065233024E-3,7.459008402E-3
2.078212510E0,-3.595161485E-3,4.660394508E-3,-1.065233024E-3,5.981570402E-3
2.080714281E0,-3.994623839E-4,3.595161485E-3,2.130466048E-3,4.198052153E-3
2.083216052E0,2.796236658E-3,1.464695437E-3,2.130466048E-3,3.808301164E-3
2.085830114E0,-3.595161485E-3,3.595161485E-3,2.130466048E-3,5.512645262E-3
2.088333760E0,-1.464695437E-3,2.529928461E-3,4.260932095E-3,5.167341005E-3
2.090837406E0,1.731003635E-3,-9.187635034E-3,5.326164886E-3,1.075997414E-2
2.093341052E0,3.861469682E-3,-8.122402243E-3,2.130466048E-3,9.242470010E-3
2.095844697E0,2.796236658E-3,-7.057168987E-3,4.260932095E-3,8.705062658E-3
2.098348343E0,1.731003635E-3,-3.861469682E-3,5.326164886E-3,6.802599069E-3
2.100851937E0,-1.464695437E-3,-3.861469682E-3,1.065233024E-3,4.265091116E-3
2.103355583E0,-3.595161485E-3,-4.926702939E-3,1.065233024E-3,6.191309179E-3
2.105859229E0,-5.725627299E-3,3.994623839E-4,0.000000000E0,5.739545119E-3
2.108362874E0,-3.595161485E-3,3.994623839E-4,-1.065233024E-3,3.770872272E-3
2.110866520E0,-1.105179265E-2,-1.731003635E-3,1.065233024E-3,1.123713557E-2
2.113370166E0,-7.856093347E-3,3.994623839E-4,2.130466048E-3,8.149641615E-3
2.115969541E0,-5.725627299E-3,-1.731003635E-3,2.130466048E-3,6.349650946E-3
2.118473187E0,-1.318225823E-2,-3.861469682E-3,0.000000000E0,1.373618871E-2
2.120976833E0,-1.211702544E-2,-1.731003635E-3,-4.260932095E-3,1.296048693E-2
2.123480479E0,-1.318225823E-2,-2.796236658E-3,-1.065233024E-3,1.351760308E-2
2.125984124E0,-1.531272475E-2,4.660394508E-3,0.000000000E0,1.600621180E-2
2.128487770E0,-1.531272475E-2,6.790860556E-3,-2.130466048E-3,1.688591756E-2
2.130991364E0,-1.850842312E-2,3.994623839E-4,-2.130466048E-3,1.863491836E-2
2.133495010E0,-1.957365684E-2,1.464695437E-3,-1.065233024E-3,1.965726574E-2
2.135998656E0,-2.170412242E-2,4.660394508E-3,0.000000000E0,2.219883346E-2
2.138502302E0,-2.276935615E-2,5.725627299E-3,0.000000000E0,2.347821090E-2
2.141005947E0,-1.637795754E-2,9.986559860E-3,-3.195699072E-3,1.944688570E-2
2.143509593E0,-1.744319126E-2,9.986559860E-3,-3.195699072E-3,2.035212008E-2
2.146131781E0,-1.424749196E-2,1.957365684E-2,-4.260932095E-3,2.458199771E-2
2.148635427E0,-1.211702544E-2,1.637795754E-2,-2.130466048E-3,2.048410809E-2
2.151139072E0,-1.424749196E-2,5.725627299E-3,-1.065233024E-3,1.539183408E-2
2.153642718E0,-1.105179265E-2,7.856093347E-3,-1.065233024E-3,1.360128835E-2
2.156146364E0,-7.856093347E-3,5.725627299E-3,-4.260932095E-3,1.061397913E-2
2.158650010E0,-2.529928461E-3,3.994623839E-4,-3.195699072E-3,4.095436578E-3
2.161153656E0,-2.529928461E-3,-3.861469682E-3,1.065233024E-3,4.737742872E-3
2.163657249E0,6.657706108E-4,-1.025286783E-2,-4.260932095E-3,1.112295336E-2
2.166160895E0,-3.994623839E-4,-8.122402243E-3,-3.195699072E-3,8.737590111E-3
2.168664541E0,3.861469682E-3,-9.187635034E-3,-3.195699072E-3,1.046594851E-2
2.171168187E0,4.926702939E-3,-1.877473295E-2,-1.065233024E-3,1.943959157E-2
2.173671833E0,1.731003635E-3,-1.983996481E-2,-3.195699072E-3,2.017010336E-2
2.176230635E0,6.657706108E-4,-2.197043039E-2,-2.130466048E-3,2.208352208E-2
2.178734281E0,1.025286783E-2,-1.983996481E-2,-4.260932095E-3,2.273545787E-2
2.181237927E0,8.122402243E-3,-2.090519853E-2,-6.391398143E-3,2.332060707E-2
2.183741572E0,7.057168987E-3,-2.396774292E-2,-5.326164886E-3,2.554651380E-2
2.186245218E0,8.122402243E-3,-1.983996481E-2,-3.195699072E-3,2.167510356E-2
2.188748864E0,8.122402243E-3,-2.290250920E-2,-2.130466048E-3,2.439338499E-2
2.191252458E0,7.057168987E-3,-2.290250920E-2,-1.065233024E-3,2.398881579E-2
2.193756104E0,1.025286783E-2,-2.396774292E-2,-1.065233024E-3,2.609039518E-2
2.196259749E0,9.187635034E-3,-2.396774292E-2,0.000000000E0,2.566837233E-2
2.198763395E0,9.187635034E-3,-1.877473295E-2,2.130466048E-3,2.101052404E-2
2.201267041E0,8.122402243E-3,-1.664426550E-2,0.000000000E0,1.852039396E-2
2.203770687E0,7.057168987E-3,-1.770949923E-2,3.195699072E-3,1.932983418E-2
2.206365218E0,8.122402243E-3,-5.991935730E-3,2.130466048E-3,1.031579360E-2
2.208868864E0,5.991935730E-3,-5.991935730E-3,-2.130466048E-3,8.737589666E-3
2.211372510E0,1.025286783E-2,-1.131810062E-2,1.065233024E-3,1.530867145E-2
2.213876156E0,7.057168987E-3,-8.122402243E-3,4.260932095E-3,1.157292507E-2
2.216379802E0,9.187635034E-3,-6.657706108E-4,6.391398143E-3,1.121186239E-2
2.218883447E0,8.122402243E-3,2.529928461E-3,4.260932095E-3,9.514699078E-3
2.221387041E0,1.131810062E-2,2.529928461E-3,8.521864191E-3,1.439173752E-2
2.223890687E0,1.238333434E-2,1.464695437E-3,8.521864191E-3,1.510345892E-2
2.226394333E0,1.238333434E-2,1.105179265E-2,5.326164886E-3,1.743149800E-2
2.228897979E0,1.451379992E-2,5.725627299E-3,8.521864191E-3,1.777794604E-2
2.231401624E0,1.557903271E-2,2.529928461E-3,1.278279629E-2,2.031026044E-2
2.233905270E0,1.877473295E-2,1.464695437E-3,8.521864191E-3,2.067022253E-2
2.236500322E0,1.664426550E-2,1.464695437E-3,1.171756350E-2,2.040779756E-2
2.239003968E0,1.451379992E-2,-1.731003635E-3,1.384802908E-2,2.013491175E-2
2.241507614E0,1.983996481E-2,-1.731003635E-3,1.384802908E-2,2.425672044E-2
2.244011260E0,2.090519853E-2,-3.861469682E-3,1.171756350E-2,2.427425731E-2
2.246514906E0,1.877473295E-2,3.994623839E-4,1.278279629E-2,2.271673498E-2
2.249018552E0,1.983996481E-2,-3.861469682E-3,1.065232977E-2,2.284747866E-2
2.251522145E0,2.197043039E-2,-1.025286783E-2,1.065232977E-2,2.648194177E-2
2.254025791E0,2.410089783E-2,-7.057168987E-3,9.587096982E-3,2.688064990E-2
2.256529437E0,2.197043039E-2,-5.991935730E-3,8.521864191E-3,2.431512440E-2
2.259033083E0,2.303566411E-2,-3.861469682E-3,1.278279629E-2,2.662616476E-2
2.261536729E0,2.303566411E-2,-4.926702939E-3,8.521864191E-3,2.505067648E-2
2.264040374E0,2.303566411E-2,-1.731003635E-3,7.456631400E-3,2.427425687E-2
2.266643864E0,2.197043039E-2,7.856093347E-3,8.521864191E-3,2.484029355E-2
2.269147510E0,1.983996481E-2,4.660394508E-3,6.391398143E-3,2.135868560E-2
2.271651156E0,1.983996481E-2,-3.861469682E-3,7.456631400E-3,2.154382750E-2
2.274154802E0,2.410089783E-2,-3.861469682E-3,4.260932095E-3,2.477740436E-2
2.276658447E0,1.983996481E-2,-8.122402243E-3,7.456631400E-3,2.269799492E-2
2.279162093E0,1.664426550E-2,-4.926702939E-3,8.521864191E-3,1.933717004E-2
2.281665687E0,1.025286783E-2,-6.657706108E-4,4.260932095E-3,1.112295336E-2
2.284169333E0,1.344856713E-2,-9.187635034E-3,5.326164886E-3,1.713606220E-2
2.286672979E0,1.131810062E-2,-3.861469682E-3,4.260932095E-3,1.269511292E-2
2.289176624E0,7.057168987E-3,-1.731003635E-3,2.130466048E-3,7.572244929E-3
2.291680270E0,4.926702939E-3,-9.187635034E-3,3.195699072E-3,1.090401449E-2
2.294183916E0,3.861469682E-3,-8.122402243E-3,3.195699072E-3,9.544467448E-3
2.296766208E0,5.991935730E-3,-1.731003635E-3,0.000000000E0,6.236959786E-3
2.299269854E0,6.657706108E-4,-4.926702939E-3,1.065233024E-3,5.084326283E-3
2.301773499E0,-4.660394508E-3,-4.926702939E-3,-1.065233024E-3,6.864867094E-3
2.304277145E0,-5.725627299E-3,-3.861469682E-3,-1.065233024E-3,6.987737651E-3
2.306780791E0,-6.790860556E-3,3.595161485E-3,-3.195699072E-3,8.321866723E-3
2.309284437E0,-1.105179265E-2,4.660394508E-3,-3.195699072E-3,1.241265042E-2
2.311788031E0,-9.986559860E-3,-4.926702939E-3,-3.195699072E-3,1.158517467E-2
2.314291677E0,-1.105179265E-2,-1.731003635E-3,-4.260932095E-3,1.197054872E-2
2.316795322E0,-1.424749196E-2,-6.657706108E-4,-7.456631400E-3,1.609458385E-2
2.319298968E0,-1.318225823E-2,3.994623839E-4,-4.260932095E-3,1.385954706E-2
2.321802614E0,-1.105179265E-2,-6.657706108E-4,-4.260932095E-3,1.186342757E-2
2.324306260E0,-1.424749196E-2,-2.796236658E-3,-5.326164886E-3,1.546538066E-2
2.326911833E0,-1.105179265E-2,5.725627299E-3,-3.195699072E-3,1.285058058E-2
2.329415479E0,-1.105179265E-2,7.856093347E-3,-6.391398143E-3,1.499034001E-2
2.331919124E0,-1.424749196E-2,-6.657706108E-4,-9.587096982E-3,1.718565408E-2
2.334422770E0,-1.531272475E-2,1.464695437E-3,-6.391398143E-3,1.665757612E-2
2.336926416E0,-1.211702544E-2,2.529928461E-3,-6.391398143E-3,1.393100190E-2
2.339430062E0,-1.318225823E-2,3.595161485E-3,-6.391398143E-3,1.508466402E-2
2.341933708E0,-9.986559860E-3,7.856093347E-3,-7.456631400E-3,1.473264852E-2
2.344437302E0,-7.856093347E-3,6.790860556E-3,-9.587096982E-3,1.413316731E-2
2.346940947E0,-1.211702544E-2,1.424749196E-2,-8.521864191E-3,2.055323580E-2
2.349444593E0,-9.986559860E-3,1.211702544E-2,-9.587096982E-3,1.839744852E-2
2.351948239E0,-8.921326138E-3,6.790860556E-3,-5.326164886E-3,1.241264998E-2
2.354451885E0,-1.464695437E-3,1.105179265E-2,-4.260932095E-3,1.193494851E-2
2.357077354E0,-3.994623839E-4,1.105179265E-2,-5.326164886E-3,1.227475961E-2
2.359580999E0,-3.994623839E-4,6.790860556E-3,-5.326164886E-3,8.639640599E-3
2.362084645E0,-2.529928461E-3,6.790860556E-3,-4.260932095E-3,8.406656138E-3
2.364588291E0,6.657706108E-4,5.725627299E-3,0.000000000E0,5.764204930E-3
2.367091937E0,-2.529928461E-3,1.211702544E-2,-2.130466048E-3,1.256032361E-2
2.369595583E0,-3.994623839E-4,1.318225823E-2,-1.065233024E-3,1.323125934E-2
2.372099229E0,6.657706108E-4,5.725627299E-3,5.326164886E-3,7.848190293E-3
2.374602822E0,-3.994623839E-4,4.660394508E-3,0.000000000E0,4.677482995E-3
2.377106468E0,-3.994623839E-4,4.660394508E-3,-1.065233024E-3,4.797245935E-3
2.379610114E0,-3.994623839E-4,9.986559860E-3,-1.065233024E-3,1.005115264E-2
2.382113760E0,-2.529928461E-3,9.986559860E-3,-4.260932095E-3,1.114842851E-2
2.384617406E0,-3.595161485E-3,1.211702544E-2,-4.260932095E-3,1.333802961E-2
2.387204437E0,2.796236658E-3,1.850842312E-2,1.065233024E-3,1.874874362E-2
2.389708083E0,2.796236658E-3,1.744319126E-2,1.065233024E-3,1.769798243E-2
2.392211729E0,-3.994623839E-4,1.211702544E-2,1.065233024E-3,1.217031623E-2
2.394715374E0,6.657706108E-4,1.744319126E-2,5.326164886E-3,1.825037545E-2
2.397219020E0,-2.529928461E-3,1.637795754E-2,5.326164886E-3,1.740706935E-2
2.399722666E0,-6.790860556E-3,7.856093347E-3,0.000000000E0,1.038431460E-2
2.402226312E0,-4.660394508E-3,6.790860556E-3,5.326164886E-3,9.808317718E-3
2.404729906E0,-4.660394508E-3,-6.657706108E-4,4.260932095E-3,6.349651156E-3
2.407233552E0,-6.790860556E-3,1.464695437E-3,3.195699072E-3,7.646804063E-3
2.409737197E0,-6.790860556E-3,-1.731003635E-3,5.326164886E-3,8.802283401E-3
2.412240843E0,-1.105179265E-2,-1.025286783E-2,4.260932095E-3,1.566585337E-2
2.414744489E0,-1.318225823E-2,-1.238333434E-2,-1.065233024E-3,1.811777091E-2
2.417316989E0,-1.424749196E-2,-1.238333434E-2,0.000000000E0,1.887691703E-2
2.419820635E0,-1.318225823E-2,-1.131810062E-2,3.195699072E-3,1.766589444E-2
2.422324281E0,-1.424749196E-2,-1.025286783E-2,1.065233024E-3,1.758542144E-2
2.424827927E0,-1.531272475E-2,-7.057168987E-3,3.195699072E-3,1.716087602E-2
2.427331572E0,-1.424749196E-2,3.994623839E-4,6.391398143E-3,1.562051752E-2
2.429835218E0,-1.531272475E-2,2.529928461E-3,-1.065233024E-3,1.555682482E-2
2.432338864E0,-1.211702544E-2,-1.731003635E-3,1.065233024E-3,1.228630948E-2
2.434842458E0,-1.637795754E-2,4.660394508E-3,2.130466048E-3,1.716087573E-2
2.437346104E0,-1.850842312E-2,1.105179265E-2,0.000000000E0,2.155699068E-2
2.439849749E0,-1.424749196E-2,8.921326138E-3,0.000000000E0,1.681014834E-2
2.442353395E0,-6.790860556E-3,6.790860556E-3,-1.065233024E-3,9.662623638E-3
2.444857041E0,-4.660394508E-3,6.790860556E-3,-2.130466048E-3,8.507288031E-3
2.447435635E0,-6.790860556E-3,1.424749196E-2,-1.065233024E-3,1.581902448E-2
2.449939281E0,-7.856093347E-3,1.957365684E-2,1.065233024E-3,2.111826144E-2
2.452442927E0,-4.660394508E-3,8.921326138E-3,1.065233024E-3,1.012146523E-2
2.454946572E0,-6.790860556E-3,6.790860556E-3,-1.065233024E-3,9.662623638E-3
2.457450218E0,-6.790860556E-3,1.105179265E-2,1.065233024E-3,1.301509237E-2
2.459953864E0,-1.464695437E-3,6.790860556E-3,1.065233024E-3,7.028217499E-3
2.462457458E0,1.731003635E-3,3.595161485E-3,0.000000000E0,3.990182913E-3
2.464961104E0,1.731003635E-3,3.595161485E-3,-1.065233024E-3,4.129925069E-3
2.467464749E0,4.926702939E-3,5.725627299E-3,-1.065233024E-3,7.628232509E-3
2.469968395E0,2.796236658E-3,1.464695437E-3,1.065233024E-3,3.331515206E-3
2.472472041E0,2.796236658E-3,-3.861469682E-3,-1.065233024E-3,4.885141651E-3
2.474975687E0,9.187635034E-3,-6.657706108E-4,-4.260932095E-3,1.014945468E-2
2.477578864E0,9.187635034E-3,-1.731003635E-3,0.000000000E0,9.349278641E-3
2.480082510E0,1.025286783E-2,-2.796236658E-3,0.000000000E0,1.062733448E-2
2.482586156E0,1.025286783E-2,-3.861469682E-3,-1.065233024E-3,1.100758684E-2
2.485089802E0,8.122402243E-3,-2.796236658E-3,-1.065233024E-3,8.656042921E-3
2.487593447E0,1.731003635E-3,2.529928461E-3,2.130466048E-3,3.733068065E-3
2.490097093E0,5.991935730E-3,2.529928461E-3,0.000000000E0,6.504139590E-3
2.492600687E0,3.861469682E-3,-2.796236658E-3,2.130466048E-3,5.221951085E-3
2.495104333E0,3.861469682E-3,3.994623839E-4,-2.130466048E-3,4.428250657E-3
2.497607979E0,3.861469682E-3,3.994623839E-4,-1.065233024E-3,4.025573214E-3
2.500111624E0,5.991935730E-3,5.725627299E-3,-1.065233024E-3,8.355885540E-3
2.502615270E0,6.657706108E-4,6.790860556E-3,-4.260932095E-3,8.044537272E-3
2.505118916E0,-3.994623839E-4,7.856093347E-3,-1.065233024E-3,7.938040959E-3
2.507702770E0,6.657706108E-4,1.744319126E-2,-1.065233024E-3,1.748836451E-2
2.510206416E0,-2.529928461E-3,1.957365684E-2,-1.065233024E-3,1.976520431E-2
2.512710062E0,-3.595161485E-3,1.424749196E-2,0.000000000E0,1.469408769E-2
2.515213708E0,-5.725627299E-3,1.637795754E-2,-6.391398143E-3,1.848973421E-2
2.517717354E0,-6.790860556E-3,1.531272475E-2,-7.456631400E-3,1.833566683E-2
2.520220947E0,-9.986559860E-3,1.850842312E-2,0.000000000E0,2.103076566E-2
2.522724593E0,-6.790860556E-3,1.850842312E-2,1.065233024E-3,1.974366316E-2
2.525228239E0,-6.790860556E-3,1.318225823E-2,-1.065233024E-3,1.486682349E-2
2.527731885E0,-8.921326138E-3,1.744319126E-2,-2.130466048E-3,1.970771085E-2
2.530235531E0,-7.856093347E-3,1.744319126E-2,0.000000000E0,1.913068540E-2
2.532739177E0,-3.595161485E-3,8.921326138E-3,0.000000000E0,9.618484608E-3
2.535242822E0,-6.790860556E-3,1.105179265E-2,0.000000000E0,1.297142659E-2
2.537837093E0,-1.105179265E-2,1.318225823E-2,-2.130466048E-3,1.733357835E-2
2.540340739E0,-6.790860556E-3,1.531272475E-2,1.065233024E-3,1.678481599E-2
2.542844385E0,-6.790860556E-3,1.637795754E-2,0.000000000E0,1.773001072E-2
2.545348031E0,-6.790860556E-3,1.531272475E-2,2.130466048E-3,1.688591756E-2
2.547851677E0,-5.725627299E-3,2.489982173E-2,2.130466048E-3,2.563830758E-2
2.550355270E0,-5.725627299E-3,2.489982173E-2,3.195699072E-3,2.574871691E-2
2.552858916E0,-1.464695437E-3,2.170412242E-2,2.130466048E-3,2.185756502E-2
2.555362562E0,1.731003635E-3,2.276935615E-2,0.000000000E0,2.283505973E-2
2.557866208E0,-2.529928461E-3,2.383458801E-2,0.000000000E0,2.396848188E-2
2.560369854E0,-1.464695437E-3,2.276935615E-2,3.195699072E-3,2.303912769E-2
2.562873499E0,1.731003635E-3,2.383458801E-2,2.130466048E-3,2.399214131E-2
2.565377145E0,6.657706108E-4,2.276935615E-2,1.065233024E-3,2.280398104E-2
2.567969593E0,6.657706108E-4,2.489982173E-2,2.130466048E-3,2.499966516E-2
2.570473239E0,-2.529928461E-3,2.063889056E-2,0.000000000E0,2.079337254E-2
2.572976885E0,-3.595161485E-3,9.986559860E-3,2.130466048E-3,1.082568471E-2
2.575480531E0,6.657706108E-4,7.856093347E-3,0.000000000E0,7.884253496E-3
2.577984177E0,-2.529928461E-3,7.856093347E-3,1.065233024E-3,8.321866503E-3
2.580487822E0,-2.529928461E-3,5.725627299E-3,1.065233024E-3,6.349650965E-3
2.582991416E0,-2.529928461E-3,5.725627299E-3,1.065233024E-3,6.349650965E-3
2.585495062E0,-2.529928461E-3,1.464695437E-3,-1.065233024E-3,3.111364995E-3
2.587998708E0,1.731003635E-3,4.660394508E-3,2.130466048E-3,5.408746263E-3
2.590502354E0,4.926702939E-3,3.595161485E-3,4.260932095E-3,7.439968432E-3
2.593005999E0,2.796236658E-3,-1.731003635E-3,3.195699072E-3,4.585608530E-3
2.595509645E0,-1.464695437E-3,1.464695437E-3,3.195699072E-3,3.808301196E-3
2.598106260E0,2.796236658E-3,3.994623839E-4,1.065233024E-3,3.018812853E-3
2.600611416E0,1.731003635E-3,-2.796236658E-3,3.195699072E-3,4.585608530E-3
2.603116572E0,-3.994623839E-4,-7.057168987E-3,1.065233024E-3,7.148281311E-3
2.605621729E0,3.861469682E-3,-7.057168987E-3,5.326164886E-3,9.647933178E-3
2.608126833E0,1.731003635E-3,1.464695437E-3,1.065233024E-3,2.505279965E-3
2.610631989E0,-2.529928461E-3,-3.861469682E-3,-2.130466048E-3,5.084326082E-3
2.613137145E0,-3.994623839E-4,-1.557903271E-2,0.000000000E0,1.558415318E-2
2.615642302E0,6.657706108E-4,-1.131810062E-2,1.065233024E-3,1.138759735E-2
2.618147406E0,1.731003635E-3,-1.131810062E-2,0.000000000E0,1.144970633E-2
2.620652562E0,-3.994623839E-4,-1.238333434E-2,-1.065233024E-3,1.243548394E-2
2.623157718E0,1.731003635E-3,-8.122402243E-3,1.065233024E-3,8.372843793E-3
2.625662874E0,2.796236658E-3,-8.122402243E-3,-1.065233024E-3,8.656042921E-3
2.628238395E0,3.861469682E-3,5.725627299E-3,0.000000000E0,6.906066614E-3
2.630743552E0,1.731003635E-3,7.856093347E-3,-1.065233024E-3,8.114758016E-3
2.633248708E0,6.657706108E-4,3.994623839E-4,1.065233024E-3,1.318158601E-3
2.635753864E0,2.796236658E-3,2.529928461E-3,4.260932095E-3,5.689905077E-3
2.638258968E0,1.731003635E-3,-1.731003635E-3,3.195699072E-3,4.025573217E-3
2.640764124E0,-1.464695437E-3,3.994623839E-4,4.260932095E-3,4.523322367E-3
2.643269281E0,-1.464695437E-3,2.529928461E-3,5.326164886E-3,6.075681290E-3
2.645774437E0,-2.529928461E-3,-1.731003635E-3,5.326164886E-3,6.145318869E-3
2.648279541E0,6.657706108E-4,4.660394508E-3,5.326164886E-3,7.108485062E-3
2.650784697E0,-1.464695437E-3,5.725627299E-3,3.195699072E-3,6.718677939E-3
2.653289854E0,-6.790860556E-3,5.725627299E-3,0.000000000E0,8.882488112E-3
2.655795010E0,-4.660394508E-3,1.531272475E-2,0.000000000E0,1.600621180E-2
2.658374229E0,-3.595161485E-3,2.170412242E-2,5.326164886E-3,2.263541801E-2
2.660879385E0,-2.529928461E-3,2.596505545E-2,5.326164886E-3,2.662616523E-2
2.663384541E0,-4.660394508E-3,3.448691964E-2,4.260932095E-3,3.506026876E-2
2.665889697E0,-8.921326138E-3,3.555215150E-2,3.195699072E-3,3.679345090E-2
2.668394802E0,-7.856093347E-3,4.407401755E-2,3.195699072E-3,4.488262157E-2
2.670899958E0,-9.986559860E-3,4.300878197E-2,0.000000000E0,4.415299202E-2
2.673405114E0,-9.986559860E-3,3.981308267E-2,0.000000000E0,4.104647280E-2
2.675910270E0,-1.211702544E-2,3.768261895E-2,1.065233024E-3,3.959718169E-2
2.678415427E0,-1.637795754E-2,3.448691964E-2,0.000000000E0,3.817833312E-2
2.680920531E0,-1.424749196E-2,3.022598661E-2,1.065233024E-3,3.343255921E-2
2.683425687E0,-1.318225823E-2,3.022598661E-2,0.000000000E0,3.297547875E-2
2.685930843E0,-1.531272475E-2,2.916075476E-2,-1.065233024E-3,3.295396605E-2
2.688505218E0,-1.637795754E-2,3.661738336E-2,0.000000000E0,4.011321799E-2
2.691010374E0,-1.744319126E-2,3.661738336E-2,1.065233024E-3,4.057378965E-2
2.693515531E0,-1.211702544E-2,2.916075476E-2,-1.065233024E-3,3.159599096E-2
2.696020687E0,-1.105179265E-2,3.342168778E-2,0.000000000E0,3.520158143E-2
2.698525791E0,-1.531272475E-2,3.661738336E-2,2.130466048E-3,3.974734191E-2
2.701030947E0,-9.986559860E-3,3.555215150E-2,-2.130466048E-3,3.698953554E-2
2.703536104E0,-9.986559860E-3,4.194355011E-2,-1.065233024E-3,4.312919539E-2
2.706041260E0,-8.921326138E-3,4.087831825E-2,3.195699072E-3,4.196235760E-2
2.708546364E0,-4.660394508E-3,4.300878197E-2,-1.065233024E-3,4.327365625E-2
2.711051572E0,-2.529928461E-3,4.513924941E-2,1.065233024E-3,4.522263921E-2
2.713556677E0,-2.529928461E-3,3.661738336E-2,2.130466048E-3,3.676645465E-2
2.716061833E0,-2.529928461E-3,3.874785081E-2,2.130466048E-3,3.888875629E-2
2.718648916E0,3.861469682E-3,3.555215150E-2,5.326164886E-3,3.615569743E-2
2.721154072E0,7.057168987E-3,3.555215150E-2,4.260932095E-3,3.649540591E-2
2.723659229E0,8.122402243E-3,3.129122034E-2,4.260932095E-3,3.260781242E-2
2.726164385E0,5.991935730E-3,3.235645220E-2,8.521864191E-3,3.399213824E-2
2.728669489E0,9.187635034E-3,3.768261895E-2,4.260932095E-3,3.901984047E-2
2.731174645E0,5.991935730E-3,3.555215150E-2,3.195699072E-3,3.619490659E-2
2.733679802E0,9.187635034E-3,3.022598661E-2,7.456631400E-3,3.245957880E-2
2.736184958E0,1.025286783E-2,2.703028731E-2,9.587096982E-3,3.045767817E-2
2.738690062E0,1.238333434E-2,2.809552103E-2,9.587096982E-3,3.216547373E-2
2.741195270E0,1.025286783E-2,2.596505545E-2,7.456631400E-3,2.889475307E-2
2.743700374E0,1.025286783E-2,2.063889056E-2,8.521864191E-3,2.457045526E-2
2.746205531E0,1.131810062E-2,1.637795754E-2,9.587096982E-3,2.209636448E-2
2.748772927E0,1.131810062E-2,1.850842312E-2,1.171756350E-2,2.465689401E-2
2.751278083E0,1.131810062E-2,2.063889056E-2,5.326164886E-3,2.413361220E-2
2.753783239E0,8.122402243E-3,9.986559860E-3,9.587096982E-3,1.605045870E-2
2.756288395E0,8.122402243E-3,1.464695437E-3,9.587096982E-3,1.265034306E-2
2.758793499E0,4.926702939E-3,2.529928461E-3,7.456631400E-3,9.288395539E-3
2.761298656E0,2.796236658E-3,3.994623839E-4,4.260932095E-3,5.112147491E-3
2.763803812E0,-3.994623839E-4,-6.657706108E-4,5.326164886E-3,5.382457905E-3
2.766308968E0,6.657706108E-4,-4.926702939E-3,6.391398143E-3,8.097260190E-3
2.768814072E0,-1.464695437E-3,4.660394508E-3,6.391398143E-3,8.044537272E-3
2.771319229E0,-2.529928461E-3,7.856093347E-3,5.326164886E-3,9.822768097E-3
2.773824385E0,-4.660394508E-3,3.994623839E-4,5.326164886E-3,7.088503338E-3
2.776329541E0,-5.725627299E-3,8.921326138E-3,1.065232977E-2,1.502814019E-2
2.778924072E0,-6.790860556E-3,1.211702544E-2,6.391398143E-3,1.529012959E-2
2.781429229E0,-1.318225823E-2,7.856093347E-3,7.456631400E-3,1.706140342E-2
2.783934385E0,-9.986559860E-3,6.790860556E-3,5.326164886E-3,1.319906047E-2
2.786439541E0,-1.105179265E-2,8.921326138E-3,4.260932095E-3,1.482861164E-2
2.788944697E0,-1.211702544E-2,1.318225823E-2,6.391398143E-3,1.901168609E-2
2.791449802E0,-1.531272475E-2,9.986559860E-3,6.391398143E-3,1.936648877E-2
2.793954958E0,-1.424749196E-2,-6.657706108E-4,4.260932095E-3,1.488589332E-2
2.796460114E0,-9.986559860E-3,-6.657706108E-4,2.130466048E-3,1.023296213E-2
2.798965218E0,-1.105179265E-2,2.529928461E-3,1.065233024E-3,1.138759765E-2
2.801470374E0,-1.531272475E-2,1.464695437E-3,1.065233024E-3,1.541945503E-2
2.803975531E0,-1.637795754E-2,3.994623839E-4,-3.195699072E-3,1.669160136E-2
2.806480687E0,-1.531272475E-2,4.660394508E-3,-1.065233024E-3,1.604161892E-2
2.809048812E0,-1.744319126E-2,1.211702544E-2,-1.065233024E-3,2.126551077E-2
2.811553968E0,-1.318225823E-2,1.211702544E-2,-4.260932095E-3,1.840515634E-2
2.814059124E0,-1.105179265E-2,4.660394508E-3,-5.326164886E-3,1.312362108E-2
2.816564281E0,-1.531272475E-2,5.725627299E-3,-3.195699072E-3,1.665757605E-2
2.819069437E0,-1.424749196E-2,6.790860556E-3,-4.260932095E-3,1.634816064E-2
2.821574541E0,-1.637795754E-2,7.856093347E-3,-8.521864191E-3,2.006434313E-2
2.824079697E0,-1.744319126E-2,6.790860556E-3,-5.326164886E-3,1.946146811E-2
2.826584854E0,-2.063889056E-2,7.856093347E-3,-7.456631400E-3,2.330843964E-2
2.829090010E0,-1.424749196E-2,1.211702544E-2,-7.456631400E-3,2.013491208E-2
2.831595166E0,-9.986559860E-3,7.856093347E-3,-8.521864191E-3,1.529940358E-2
2.834100270E0,-1.105179265E-2,2.529928461E-3,-9.587096982E-3,1.484773004E-2
2.836605427E0,-1.318225823E-2,-6.657706108E-4,-7.456631400E-3,1.515970100E-2
2.839175791E0,-1.211702544E-2,-6.657706108E-4,-8.521864191E-3,1.482861171E-2
2.841680947E0,-1.531272475E-2,3.994623839E-4,-8.521864191E-3,1.752886986E-2
2.844186104E0,-1.424749196E-2,-1.731003635E-3,-9.587096982E-3,1.725977489E-2
2.846691260E0,-1.424749196E-2,-2.796236658E-3,-1.278279629E-2,1.934450432E-2
2.849196416E0,-1.318225823E-2,3.595161485E-3,-1.065232977E-2,1.732539315E-2
2.851701572E0,-1.744319126E-2,3.994623839E-4,-8.521864191E-3,1.941768938E-2
2.854206677E0,-1.211702544E-2,-5.991935730E-3,-8.521864191E-3,1.597960477E-2
2.856711833E0,-9.986559860E-3,-4.926702939E-3,-1.171756350E-2,1.616493347E-2
2.859216989E0,-9.986559860E-3,-3.861469682E-3,-9.587096982E-3,1.437201289E-2
2.861722093E0,-1.318225823E-2,-4.926702939E-3,-9.587096982E-3,1.702811682E-2
2.864227249E0,-1.318225823E-2,-4.926702939E-3,-1.065232977E-2,1.764982900E-2
2.866732406E0,-8.921326138E-3,-2.796236658E-3,-1.171756350E-2,1.499034002E-2
2.869306468E0,-1.105179265E-2,4.660394508E-3,-1.065232977E-2,1.604161860E-2
2.871811624E0,-9.986559860E-3,5.725627299E-3,-1.065232977E-2,1.568395089E-2
2.874316781E0,-1.424749196E-2,-6.657706108E-4,-1.278279629E-2,1.915291514E-2
2.876821937E0,-9.986559860E-3,3.595161485E-3,-9.587096982E-3,1.430276171E-2
2.879327041E0,-2.529928461E-3,6.790860556E-3,-6.391398143E-3,9.662623626E-3
2.881832249E0,-4.660394508E-3,2.529928461E-3,-9.587096982E-3,1.095592276E-2
2.884337354E0,-2.529928461E-3,3.595161485E-3,-6.391398143E-3,7.757299423E-3
2.886842510E0,1.731003635E-3,6.790860556E-3,-3.195699072E-3,7.702249881E-3
2.889347666E0,2.796236658E-3,1.211702544E-2,0.000000000E0,1.243548330E-2
2.891852822E0,2.796236658E-3,1.211702544E-2,-1.065233024E-3,1.248102425E-2
2.894357927E0,2.796236658E-3,5.725627299E-3,-2.130466048E-3,6.718677921E-3
2.896863083E0,2.796236658E-3,1.744319126E-2,1.065233024E-3,1.769798243E-2
2.899440374E0,7.057168987E-3,1.211702544E-2,-3.195699072E-3,1.438187861E-2
2.901945531E0,7.057168987E-3,1.105179265E-2,-2.130466048E-3,1.328475218E-2
2.904450635E0,1.025286783E-2,1.424749196E-2,1.065233024E-3,1.758542144E-2
2.906955791E0,7.057168987E-3,8.921326138E-3,-1.065233024E-3,1.142490331E-2
2.909460895E0,7.057168987E-3,1.957365684E-2,1.065233024E-3,2.083426019E-2
2.911966104E0,1.131810062E-2,1.957365684E-2,0.000000000E0,2.261033931E-2
2.914471208E0,1.238333434E-2,1.105179265E-2,-1.065233024E-3,1.663201165E-2
2.916976364E0,1.131810062E-2,1.531272475E-2,1.065233024E-3,1.907127846E-2
2.919481468E0,1.131810062E-2,1.744319126E-2,-2.130466048E-3,2.090222975E-2
2.921986677E0,1.344856713E-2,1.957365684E-2,0.000000000E0,2.374851574E-2
2.924491781E0,1.557903271E-2,2.276935615E-2,-2.130466048E-3,2.767108103E-2
2.926996937E0,1.664426550E-2,2.383458801E-2,-1.065233024E-3,2.909044312E-2
2.929574072E0,1.664426550E-2,3.661738336E-2,-1.065233024E-3,4.023678739E-2
2.932079229E0,1.664426550E-2,3.235645220E-2,0.000000000E0,3.638642017E-2
2.934584333E0,1.451379992E-2,3.235645220E-2,3.195699072E-3,3.560621967E-2
2.937089489E0,1.238333434E-2,3.555215150E-2,0.000000000E0,3.764707752E-2
2.939594593E0,1.664426550E-2,3.874785081E-2,1.065233024E-3,4.218485792E-2
2.942099802E0,1.770949923E-2,4.087831825E-2,0.000000000E0,4.454955966E-2
2.944604906E0,1.451379992E-2,3.768261895E-2,1.065233024E-3,4.039510961E-2
2.947110062E0,1.344856713E-2,3.448691964E-2,0.000000000E0,3.701636914E-2
2.949615218E0,1.770949923E-2,4.194355011E-2,-2.130466048E-3,4.557879599E-2
2.952120374E0,1.238333434E-2,4.087831825E-2,-4.260932095E-3,4.292481118E-2
2.954625531E0,1.131810062E-2,3.448691964E-2,2.130466048E-3,3.635912421E-2
2.957130635E0,4.926702939E-3,3.555215150E-2,1.065233024E-3,3.590769555E-2
2.959708447E0,9.187635034E-3,3.661738336E-2,2.130466048E-3,3.781248851E-2
2.962213656E0,1.131810062E-2,3.448691964E-2,1.065233024E-3,3.631228097E-2
2.964718760E0,5.991935730E-3,3.342168778E-2,0.000000000E0,3.395456535E-2
2.967223916E0,1.731003635E-3,3.448691964E-2,1.065233024E-3,3.454676137E-2
2.969729072E0,8.122402243E-3,3.768261895E-2,-1.065233024E-3,3.856277882E-2
2.972234229E0,1.025286783E-2,3.874785081E-2,-3.195699072E-3,4.020857786E-2
2.974739333E0,3.861469682E-3,2.916075476E-2,-1.065233024E-3,2.943459338E-2
2.977244489E0,7.057168987E-3,2.596505545E-2,-3.195699072E-3,2.709612945E-2
2.979749593E0,3.861469682E-3,2.916075476E-2,-6.391398143E-3,3.010166999E-2
2.982254802E0,2.796236658E-3,2.276935615E-2,-6.391398143E-3,2.381412373E-2
2.984759906E0,6.657706108E-4,2.063889056E-2,-9.587096982E-3,2.276663091E-2
2.987265062E0,6.657706108E-4,2.170412242E-2,-8.521864191E-3,2.332668751E-2
2.989841885E0,-2.529928461E-3,2.916075476E-2,-1.278279629E-2,3.193978768E-2
2.992347093E0,1.731003635E-3,2.809552103E-2,-9.587096982E-3,2.973662900E-2
2.994852197E0,6.657706108E-4,2.276935615E-2,-1.065232977E-2,2.514674849E-2
2.997357354E0,6.657706108E-4,2.489982173E-2,-1.171756350E-2,2.752718051E-2
2.999862458E0,2.796236658E-3,2.916075476E-2,-1.384802908E-2,3.240272314E-2
3.002367666E0,1.731003635E-3,3.235645220E-2,-1.491326280E-2,3.566990019E-2
3.004872770E0,6.657706108E-4,3.661738336E-2,-1.278279629E-2,3.879015204E-2
3.007377927E0,-3.994623839E-4,3.661738336E-2,-1.171756350E-2,3.844858422E-2
3.009883031E0,-3.994623839E-4,4.726971686E-2,-9.587096982E-3,4.823378619E-2
3.012388239E0,-2.529928461E-3,5.472634733E-2,-9.587096982E-3,5.561731797E-2
3.014893343E0,-2.529928461E-3,4.726971686E-2,-1.065232977E-2,4.852111705E-2
3.017398499E0,-1.464695437E-3,4.940018058E-2,-1.065232977E-2,5.055685219E-2
3.019983604E0,1.731003635E-3,5.259587988E-2,-9.587096982E-3,5.349051676E-2
3.022488760E0,-2.529928461E-3,5.685681105E-2,-8.521864191E-3,5.754754269E-2
3.024993916E0,-1.464695437E-3,5.898727849E-2,-1.065232977E-2,5.995929024E-2
3.027499072E0,-2.529928461E-3,5.898727849E-2,-1.065232977E-2,5.999476387E-2
3.030004177E0,1.731003635E-3,6.324820966E-2,-1.065232977E-2,6.416232951E-2
3.032509333E0,3.861469682E-3,6.111774594E-2,-6.391398143E-3,6.157223227E-2
3.035014489E0,2.796236658E-3,5.685681105E-2,-2.130466048E-3,5.696538236E-2
3.037519645E0,1.731003635E-3,5.579157919E-2,-7.456631400E-3,5.631427913E-2
3.040024749E0,-2.529928461E-3,5.259587988E-2,-6.391398143E-3,5.304316251E-2
3.042529906E0,-1.464695437E-3,4.940018058E-2,-1.065233024E-3,4.943336824E-2
3.045035114E0,6.657706108E-4,4.513924941E-2,-5.326164886E-3,4.545726697E-2
3.047540218E0,-1.464695437E-3,3.874785081E-2,-5.326164886E-3,3.913961302E-2
3.050108552E0,1.731003635E-3,3.661738336E-2,-4.260932095E-3,3.690507662E-2
3.052613656E0,2.796236658E-3,2.489982173E-2,-3.195699072E-3,2.525930629E-2
3.055118812E0,-3.994623839E-4,9.986559860E-3,-2.130466048E-3,1.021909162E-2
3.057623968E0,-1.464695437E-3,1.105179265E-2,-2.130466048E-3,1.135016912E-2
3.060129124E0,-3.994623839E-4,1.105179265E-2,-2.130466048E-3,1.126235218E-2
3.062634281E0,-3.595161485E-3,9.986559860E-3,-5.326164886E-3,1.187537773E-2
3.065139385E0,-4.660394508E-3,9.986559860E-3,-4.260932095E-3,1.181550664E-2
3.067644541E0,-8.921326138E-3,7.856093347E-3,-2.130466048E-3,1.207671927E-2
3.070149645E0,-7.856093347E-3,2.063889056E-2,-3.195699072E-3,2.231354967E-2
3.072654802E0,-9.986559860E-3,2.489982173E-2,-4.260932095E-3,2.716409473E-2
3.075160010E0,-1.211702544E-2,2.276935615E-2,-7.456631400E-3,2.684897087E-2
3.077665114E0,-1.850842312E-2,2.809552103E-2,-7.456631400E-3,3.446043210E-2
3.080242770E0,-1.424749196E-2,3.342168778E-2,-2.130466048E-3,3.639421832E-2
3.082747874E0,-1.211702544E-2,3.555215150E-2,-7.456631400E-3,3.829333015E-2
3.085253031E0,-1.850842312E-2,3.768261895E-2,-1.171756350E-2,4.358718609E-2
3.087758187E0,-1.531272475E-2,4.300878197E-2,-9.587096982E-3,4.664919393E-2
3.090263343E0,-1.531272475E-2,4.726971686E-2,-8.521864191E-3,5.041356802E-2
3.092768447E0,-1.424749196E-2,4.300878197E-2,-8.521864191E-3,4.610171930E-2
3.095273604E0,-1.424749196E-2,3.022598661E-2,-8.521864191E-3,3.448511945E-2
3.097778760E0,-1.744319126E-2,3.022598661E-2,-7.456631400E-3,3.568580306E-2
3.100283916E0,-1.637795754E-2,2.703028731E-2,-9.587096982E-3,3.302705488E-2
3.102789020E0,-1.531272475E-2,1.850842312E-2,-1.065232977E-2,2.627762157E-2
3.105294229E0,-1.531272475E-2,1.105179265E-2,-1.065232977E-2,2.168164638E-2
3.107799333E0,-1.318225823E-2,4.660394508E-3,-9.587096982E-3,1.695298315E-2
3.110375843E0,-1.637795754E-2,3.595161485E-3,-9.587096982E-3,1.931515228E-2
3.112882197E0,-1.531272475E-2,-2.796236658E-3,-8.521864191E-3,1.774600372E-2
3.115388552E0,-1.211702544E-2,-1.025286783E-2,-1.171756350E-2,1.972929037E-2
3.117894854E0,-1.105179265E-2,-8.122402243E-3,-1.065232977E-2,1.736627964E-2
3.120401208E0,-7.856093347E-3,-8.122402243E-3,-6.391398143E-3,1.298235692E-2
3.122907562E0,-4.660394508E-3,-1.025286783E-2,-7.456631400E-3,1.350710655E-2
3.125413916E0,-4.660394508E-3,-8.122402243E-3,-7.456631400E-3,1.197054915E-2
3.127920218E0,-6.790860556E-3,-4.926702939E-3,-8.521864191E-3,1.195869383E-2
3.130426572E0,-3.595161485E-3,3.994623839E-4,-8.521864191E-3,9.257803497E-3
3.132932927E0,-2.529928461E-3,-3.861469682E-3,-7.456631400E-3,8.769996463E-3
3.135439281E0,-4.660394508E-3,-7.057168987E-3,-9.587096982E-3,1.278418318E-2
3.137945583E0,-6.790860556E-3,-6.657706108E-4,-3.195699072E-3,7.534688458E-3
3.140509541E0,-2.529928461E-3,4.660394508E-3,-2.130466048E-3,5.714779136E-3
3.143015895E0,-4.660394508E-3,9.986559860E-3,-3.195699072E-3,1.147445630E-2
3.145522249E0,-3.595161485E-3,3.595161485E-3,-4.260932095E-3,6.633695390E-3
3.148028552E0,-1.464695437E-3,4.660394508E-3,-3.195699072E-3,5.837559614E-3
3.150534906E0,-1.464695437E-3,1.531272475E-2,1.065233024E-3,1.541945503E-2
3.153041260E0,-1.464695437E-3,1.424749196E-2,2.130466048E-3,1.448016731E-2
3.155547614E0,-3.994623839E-4,1.105179265E-2,3.195699072E-3,1.151148051E-2
3.158053916E0,-2.529928461E-3,1.744319126E-2,5.326164886E-3,1.841286213E-2
3.160560270E0,-5.725627299E-3,1.850842312E-2,3.195699072E-3,1.963560610E-2
3.163066624E0,-3.595161485E-3,2.063889056E-2,5.326164886E-3,2.161612875E-2
3.165572979E0,-3.994623839E-4,2.383458801E-2,6.391398143E-3,2.467989315E-2
3.168079281E0,-3.595161485E-3,2.170412242E-2,5.326164886E-3,2.263541801E-2
3.170643343E0,1.731003635E-3,2.703028731E-2,7.456631400E-3,2.809331162E-2
3.173149697E0,1.731003635E-3,2.703028731E-2,6.391398143E-3,2.782953064E-2
3.175656052E0,-1.464695437E-3,1.744319126E-2,1.171756350E-2,2.106446174E-2
3.178162354E0,-3.994623839E-4,1.850842312E-2,9.587096982E-3,2.084787100E-2
3.180668708E0,-2.529928461E-3,1.318225823E-2,6.391398143E-3,1.486682348E-2
3.183175062E0,-3.595161485E-3,1.211702544E-2,6.391398143E-3,1.416324334E-2
3.185681416E0,-2.529928461E-3,8.921326138E-3,8.521864191E-3,1.259415608E-2
3.188187718E0,-4.660394508E-3,9.986559860E-3,7.456631400E-3,1.330608908E-2
3.190694072E0,-1.464695437E-3,1.318225823E-2,1.065232977E-2,1.701144892E-2
3.193200427E0,-1.464695437E-3,1.211702544E-2,7.456631400E-3,1.430276163E-2
3.195706781E0,-3.595161485E-3,8.921326138E-3,6.391398143E-3,1.154838588E-2
3.198213083E0,-3.595161485E-3,1.211702544E-2,1.065232977E-2,1.652935635E-2
3.200777979E0,-4.660394508E-3,1.211702544E-2,1.171756350E-2,1.748836404E-2
3.203284333E0,-3.595161485E-3,1.424749196E-2,9.587096982E-3,1.754504607E-2
3.205790687E0,-4.660394508E-3,1.211702544E-2,7.456631400E-3,1.497140389E-2
3.208296989E0,-6.790860556E-3,1.531272475E-2,7.456631400E-3,1.833566683E-2
3.210803343E0,-9.986559860E-3,2.170412242E-2,4.260932095E-3,2.426841261E-2
3.213309697E0,-6.790860556E-3,1.957365684E-2,4.260932095E-3,2.115181722E-2
3.215816052E0,-6.790860556E-3,1.211702544E-2,4.260932095E-3,1.452906174E-2
3.218322354E0,-4.660394508E-3,1.424749196E-2,5.326164886E-3,1.590843601E-2
3.220828708E0,-1.464695437E-3,8.921326138E-3,3.195699072E-3,9.588945997E-3
3.223335062E0,-4.660394508E-3,1.105179265E-2,-2.130466048E-3,1.218196550E-2
3.225841416E0,-3.595161485E-3,5.725627299E-3,-1.065233024E-3,6.844173834E-3
3.228347718E0,-5.725627299E-3,3.994623839E-4,1.065233024E-3,5.837559384E-3
3.230924124E0,-5.725627299E-3,2.529928461E-3,3.195699072E-3,7.028217309E-3
3.233430479E0,-6.790860556E-3,-5.991935730E-3,0.000000000E0,9.056438642E-3
3.235936833E0,-5.725627299E-3,-1.451379992E-2,-1.065233024E-3,1.563866738E-2
3.238443135E0,-1.464695437E-3,-1.877473295E-2,0.000000000E0,1.883177979E-2
3.240949489E0,-3.595161485E-3,-2.822867595E-2,-1.065233024E-3,2.847662292E-2
3.243455843E0,-7.856093347E-3,-3.462007269E-2,-3.195699072E-3,3.564379509E-2
3.245962197E0,-6.790860556E-3,-4.207670316E-2,-3.195699072E-3,4.274081455E-2
3.248468499E0,-3.595161485E-3,-4.314193875E-2,-3.195699072E-3,4.340926811E-2
3.250974854E0,-3.595161485E-3,-3.888100386E-2,-4.260932095E-3,3.927866074E-2
3.253481208E0,-6.790860556E-3,-4.207670316E-2,-6.391398143E-3,4.309773435E-2
3.255987562E0,-6.790860556E-3,-4.527240247E-2,-3.195699072E-3,4.589028987E-2
3.258493864E0,-2.529928461E-3,-3.994623944E-2,-1.065233024E-3,4.004044586E-2
3.261049593E0,-3.994623839E-4,-3.888100386E-2,-3.195699072E-3,3.901415799E-2
3.263555947E0,-3.595161485E-3,-3.568530455E-2,0.000000000E0,3.586594690E-2
3.266062302E0,1.731003635E-3,-3.248960897E-2,2.130466048E-3,3.260536690E-2
3.268568604E0,-2.529928461E-3,-3.142437339E-2,-2.130466048E-3,3.159795352E-2
3.271074958E0,-1.464695437E-3,-1.983996481E-2,2.130466048E-3,2.000770906E-2
3.273581312E0,-1.464695437E-3,-1.451379992E-2,2.130466048E-3,1.474227277E-2
3.276087666E0,-3.994623839E-4,-1.877473295E-2,6.391398143E-3,1.983683789E-2
3.278593968E0,6.657706108E-4,-1.557903271E-2,9.587096982E-3,1.830469719E-2
3.281100322E0,4.926702939E-3,-1.344856713E-2,5.326164886E-3,1.528085050E-2
3.283606677E0,5.991935730E-3,-1.344856713E-2,3.195699072E-3,1.506584695E-2
3.286113031E0,2.796236658E-3,-1.451379992E-2,6.391398143E-3,1.610339398E-2
3.288619333E0,2.796236658E-3,-1.451379992E-2,4.260932095E-3,1.538261583E-2
3.291178968E0,3.861469682E-3,-9.187635034E-3,7.456631400E-3,1.244688465E-2
3.293685322E0,1.131810062E-2,-9.187635034E-3,7.456631400E-3,1.637416840E-2
3.296191677E0,1.025286783E-2,-1.238333434E-2,6.391398143E-3,1.730081611E-2
3.298697979E0,1.025286783E-2,-1.557903271E-2,4.260932095E-3,1.913068481E-2
3.301204333E0,1.557903271E-2,-1.451379992E-2,8.521864191E-3,2.293422808E-2
3.303710687E0,1.238333434E-2,-1.770949923E-2,8.521864191E-3,2.322919502E-2
3.306217041E0,1.557903271E-2,-1.770949923E-2,1.065232977E-2,2.588058640E-2
3.308723343E0,1.131810062E-2,-1.983996481E-2,9.587096982E-3,2.477167805E-2
3.311229697E0,1.770949923E-2,-1.770949923E-2,8.521864191E-3,2.645514874E-2
3.313736052E0,2.090519853E-2,-1.557903271E-2,7.456631400E-3,2.711705990E-2
3.316242406E0,2.090519853E-2,-2.197043039E-2,8.521864191E-3,3.150157625E-2
3.318748708E0,1.877473295E-2,-1.983996481E-2,8.521864191E-3,2.861358017E-2
3.321313968E0,1.877473295E-2,-1.557903271E-2,6.391398143E-3,2.521996883E-2
3.323820322E0,1.877473295E-2,-1.344856713E-2,6.391398143E-3,2.396256508E-2
3.326326677E0,1.877473295E-2,-1.877473295E-2,6.391398143E-3,2.730990964E-2
3.328832979E0,1.877473295E-2,-2.090519853E-2,6.391398143E-3,2.881610475E-2
3.331339333E0,1.557903271E-2,-1.344856713E-2,7.456631400E-3,2.188998789E-2
3.333845687E0,1.451379992E-2,-1.131810062E-2,6.391398143E-3,1.948332004E-2
3.336352041E0,1.983996481E-2,-1.770949923E-2,6.391398143E-3,2.735142659E-2
3.338858343E0,2.197043039E-2,-2.396774292E-2,2.130466048E-3,3.258360627E-2
3.341364697E0,1.557903271E-2,-2.929390781E-2,4.260932095E-3,3.345138020E-2
3.343871052E0,1.344856713E-2,-3.142437339E-2,4.260932095E-3,3.444576524E-2
3.346377406E0,1.557903271E-2,-3.355484083E-2,8.521864191E-3,3.796387458E-2
3.348883708E0,1.238333434E-2,-4.314193875E-2,7.456631400E-3,4.549917801E-2
3.351446260E0,9.187635034E-3,-4.420717061E-2,4.260932095E-3,4.535242125E-2
3.353952614E0,1.025286783E-2,-4.101147130E-2,6.391398143E-3,4.275408808E-2
3.356458968E0,1.131810062E-2,-5.272903293E-2,6.391398143E-3,5.430746068E-2
3.358965270E0,1.131810062E-2,-5.272903293E-2,6.391398143E-3,5.430746068E-2
3.361471624E0,1.025286783E-2,-5.272903293E-2,7.456631400E-3,5.423166570E-2
3.363977979E0,8.122402243E-3,-5.698996782E-2,5.326164886E-3,5.781174520E-2
3.366484333E0,7.057168987E-3,-5.698996782E-2,3.195699072E-3,5.751410748E-2
3.368990635E0,8.122402243E-3,-5.912043154E-2,4.260932095E-3,5.982770584E-2
3.371496989E0,5.991935730E-3,-5.166380107E-2,6.391398143E-3,5.240135118E-2
3.374003343E0,5.991935730E-3,-5.059856921E-2,5.326164886E-3,5.122974266E-2
3.376509697E0,1.731003635E-3,-5.912043154E-2,4.260932095E-3,5.929905009E-2
3.379015999E0,2.796236658E-3,-5.912043154E-2,0.000000000E0,5.918652182E-2
3.381579697E0,1.731003635E-3,-5.592473224E-2,3.195699072E-3,5.604270284E-2
3.384086052E0,3.861469682E-3,-5.272903293E-2,5.326164886E-3,5.313783863E-2
3.386592406E0,8.122402243E-3,-4.740286991E-2,8.521864191E-3,4.884288754E-2
3.389098708E0,2.796236658E-3,-4.633763805E-2,8.521864191E-3,4.719764622E-2
3.391605062E0,8.122402243E-3,-3.781577200E-2,8.521864191E-3,3.960591117E-2
3.394111416E0,1.025286783E-2,-3.248960897E-2,1.065232977E-2,3.569549158E-2
3.396617770E0,8.122402243E-3,-3.781577200E-2,7.456631400E-3,3.939044785E-2
3.399124072E0,1.131810062E-2,-3.675054014E-2,7.456631400E-3,3.917017939E-2
3.401630427E0,1.344856713E-2,-3.035914153E-2,1.278279629E-2,3.558006904E-2
3.404136781E0,1.344856713E-2,-2.716344222E-2,1.384802908E-2,3.332393225E-2
3.406643135E0,1.131810062E-2,-2.609820850E-2,1.278279629E-2,3.118678838E-2
3.409149437E0,1.025286783E-2,-2.396774292E-2,1.491326280E-2,3.003297199E-2
3.411713499E0,1.238333434E-2,-1.451379992E-2,1.704372838E-2,2.558292467E-2
3.414219854E0,1.557903271E-2,-1.664426550E-2,1.384802908E-2,2.667406500E-2
3.416726208E0,1.664426550E-2,-2.396774292E-2,1.491326280E-2,3.277025606E-2
3.419232510E0,1.557903271E-2,-2.503297664E-2,1.065232977E-2,3.135009265E-2
3.421738864E0,1.451379992E-2,-2.716344222E-2,1.171756350E-2,3.295154436E-2
3.424245218E0,1.557903271E-2,-2.822867595E-2,1.384802908E-2,3.509034504E-2
3.426751572E0,1.877473295E-2,-3.142437339E-2,1.597849466E-2,3.994113333E-2
3.429257874E0,1.664426550E-2,-3.781577200E-2,1.597849466E-2,4.429871869E-2
3.431764229E0,1.238333434E-2,-3.568530455E-2,1.384802908E-2,4.023127937E-2
3.434270583E0,1.131810062E-2,-3.462007269E-2,1.065232977E-2,3.794892573E-2
3.436776885E0,1.344856713E-2,-4.420717061E-2,1.171756350E-2,4.767010788E-2
3.439283239E0,1.131810062E-2,-4.207670316E-2,1.704372838E-2,4.678714597E-2
3.441848708E0,1.025286783E-2,-3.462007269E-2,1.278279629E-2,3.830235780E-2
3.444355062E0,8.122402243E-3,-2.822867595E-2,9.587096982E-3,3.089893190E-2
3.446861364E0,5.991935730E-3,-2.197043039E-2,1.491326280E-2,2.722147154E-2
3.449367718E0,9.187635034E-3,-1.664426550E-2,1.384802908E-2,2.352046175E-2
3.451874072E0,4.926702939E-3,-3.861469682E-3,1.171756350E-2,1.328475232E-2
3.454380427E0,1.731003635E-3,3.994623839E-4,9.587096982E-3,9.750301140E-3
3.456886729E0,3.861469682E-3,-4.926702939E-3,9.587096982E-3,1.144970648E-2
3.459393083E0,3.861469682E-3,1.464695437E-3,9.587096982E-3,1.043880785E-2
3.461899437E0,-1.464695437E-3,6.790860556E-3,9.587096982E-3,1.183949105E-2
3.464405791E0,-1.464695437E-3,2.529928461E-3,8.521864191E-3,9.009330720E-3
3.466912093E0,-2.529928461E-3,3.595161485E-3,9.587096982E-3,1.054694992E-2
3.469418447E0,-3.595161485E-3,3.994623839E-4,8.521864191E-3,9.257803497E-3
3.472000114E0,-1.464695437E-3,3.595161485E-3,8.521864191E-3,9.364437415E-3
3.474506468E0,-5.725627299E-3,-6.657706108E-4,7.456631400E-3,9.424829458E-3
3.477012770E0,-4.660394508E-3,-4.926702939E-3,9.587096982E-3,1.174325795E-2
3.479519124E0,-2.529928461E-3,-8.122402243E-3,9.587096982E-3,1.281742504E-2
3.482025479E0,-3.595161485E-3,-1.238333434E-2,9.587096982E-3,1.606812323E-2
3.484531833E0,-4.660394508E-3,-1.131810062E-2,7.456631400E-3,1.433248165E-2
3.487038187E0,-3.994623839E-4,-1.131810062E-2,7.456631400E-3,1.355951045E-2
3.489544489E0,2.796236658E-3,-1.451379992E-2,6.391398143E-3,1.610339398E-2
3.492050843E0,3.861469682E-3,-1.025286783E-2,9.587096982E-3,1.455831980E-2
3.494557197E0,1.731003635E-3,-1.131810062E-2,9.587096982E-3,1.493345920E-2
3.497063552E0,1.731003635E-3,-1.983996481E-2,7.456631400E-3,2.126551032E-2
3.499569854E0,-1.464695437E-3,-1.770949923E-2,8.521864191E-3,1.970771080E-2
3.502128135E0,2.796236658E-3,-1.983996481E-2,1.065232977E-2,2.269174459E-2
3.504634489E0,6.657706108E-4,-2.396774292E-2,6.391398143E-3,2.481422820E-2
3.507140843E0,-3.994623839E-4,-2.396774292E-2,9.587096982E-3,2.581713964E-2
3.509647145E0,6.657706108E-4,-2.716344222E-2,8.521864191E-3,2.847662222E-2
3.512153499E0,6.657706108E-4,-2.503297664E-2,6.391398143E-3,2.584459596E-2
3.514659854E0,3.861469682E-3,-2.716344222E-2,7.456631400E-3,2.843175854E-2
3.517166208E0,2.796236658E-3,-3.675054014E-2,1.278279629E-2,3.901052449E-2
3.519672510E0,2.796236658E-3,-3.781577200E-2,7.456631400E-3,3.864521837E-2
3.522178864E0,5.991935730E-3,-3.888100386E-2,8.521864191E-3,4.025242755E-2
3.524685218E0,2.796236658E-3,-4.101147130E-2,1.171756350E-2,4.274413424E-2
3.527191572E0,2.796236658E-3,-4.420717061E-2,8.521864191E-3,4.510781575E-2
3.529697874E0,-3.994623839E-4,-4.740286991E-2,7.456631400E-3,4.798742541E-2
3.532262770E0,-1.464695437E-3,-4.420717061E-2,1.065232977E-2,4.549605912E-2
3.534769124E0,-1.464695437E-3,-4.633763805E-2,1.278279629E-2,4.809076745E-2
3.537275479E0,-3.994623839E-4,-5.592473224E-2,1.384802908E-2,5.761512957E-2
3.539781781E0,-3.595161485E-3,-5.485950038E-2,9.587096982E-3,5.580683109E-2
3.542288135E0,-6.790860556E-3,-5.166380107E-2,1.278279629E-2,5.365318266E-2
3.544794489E0,-6.790860556E-3,-4.953333735E-2,1.065232977E-2,5.111887544E-2
3.547300843E0,-2.529928461E-3,-5.059856921E-2,8.521864191E-3,5.137351374E-2
3.549807145E0,-2.529928461E-3,-5.166380107E-2,1.065232977E-2,5.281118261E-2
3.552313499E0,-4.660394508E-3,-4.527240247E-2,1.278279629E-2,4.727271499E-2
3.554819854E0,-4.660394508E-3,-5.059856921E-2,7.456631400E-3,5.135694535E-2
3.557326208E0,-5.725627299E-3,-5.592473224E-2,1.171756350E-2,5.742525384E-2
3.559832510E0,-9.986559860E-3,-5.485950038E-2,1.278279629E-2,5.720748238E-2
3.562396781E0,-1.211702544E-2,-5.379426852E-2,5.326164886E-3,5.539867926E-2
3.564903135E0,-9.986559860E-3,-4.846810177E-2,3.195699072E-3,4.958932102E-2
3.567409489E0,-6.790860556E-3,-4.740286991E-2,8.521864191E-3,4.863918207E-2
3.569915791E0,-8.921326138E-3,-4.101147130E-2,4.260932095E-3,4.218632931E-2
3.572422145E0,-4.660394508E-3,-2.716344222E-2,5.326164886E-3,2.807026724E-2
3.574928499E0,-3.595161485E-3,-2.503297664E-2,5.326164886E-3,2.584459592E-2
3.577434854E0,-1.464695437E-3,-2.503297664E-2,2.130466048E-3,2.516613077E-2
3.579941156E0,2.796236658E-3,-1.983996481E-2,4.260932095E-3,2.048410812E-2
3.582447510E0,4.926702939E-3,-1.238333434E-2,3.195699072E-3,1.370517653E-2
3.584953864E0,2.796236658E-3,-1.238333434E-2,3.195699072E-3,1.309115737E-2
3.587460218E0,5.991935730E-3,-2.796236658E-3,3.195699072E-3,7.344026538E-3
3.589966520E0,8.122402243E-3,3.994623839E-4,3.195699072E-3,8.737590111E-3
3.592522458E0,1.731003635E-3,6.790860556E-3,6.391398143E-3,9.484836894E-3
3.595028812E0,8.122402243E-3,1.211702544E-2,5.326164886E-3,1.552944803E-2
3.597535166E0,1.131810062E-2,8.921326138E-3,4.260932095E-3,1.502814040E-2
3.600041468E0,1.238333434E-2,1.424749196E-2,5.326164886E-3,1.961392436E-2
3.602547822E0,1.131810062E-2,1.105179265E-2,4.260932095E-3,1.638282835E-2
3.605054177E0,1.344856713E-2,1.531272475E-2,4.260932095E-3,2.082063974E-2
3.607560531E0,1.238333434E-2,1.531272475E-2,2.130466048E-3,1.980821532E-2
3.610066833E0,1.131810062E-2,9.986559860E-3,1.065233024E-3,1.513160602E-2
3.612573187E0,1.131810062E-2,1.424749196E-2,-1.065233024E-3,1.822704447E-2
3.615079541E0,1.344856713E-2,6.790860556E-3,-5.326164886E-3,1.597960504E-2
3.617585895E0,1.344856713E-2,-4.926702939E-3,-1.065233024E-3,1.436214055E-2
3.620092197E0,1.131810062E-2,-5.991935730E-3,-3.195699072E-3,1.319906011E-2
3.622666885E0,1.025286783E-2,-1.238333434E-2,-1.065233024E-3,1.611220002E-2
3.625174229E0,1.557903271E-2,-1.557903271E-2,-1.065233024E-3,2.205781589E-2
3.627681572E0,1.344856713E-2,-1.983996481E-2,-2.130466048E-3,2.406298084E-2
3.630188864E0,1.238333434E-2,-2.090519853E-2,-3.195699072E-3,2.450687225E-2
3.632696208E0,1.770949923E-2,-1.131810062E-2,-1.065233024E-3,2.104425066E-2
3.635203499E0,1.451379992E-2,-1.344856713E-2,-4.260932095E-3,2.024030356E-2
3.637710843E0,9.187635034E-3,-2.197043039E-2,-5.326164886E-3,2.440246876E-2
3.640218135E0,8.122402243E-3,-1.557903271E-2,-3.195699072E-3,1.785755221E-2
3.642725479E0,9.187635034E-3,-1.344856713E-2,1.065233024E-3,1.632211128E-2
3.645232770E0,8.122402243E-3,-1.557903271E-2,-2.130466048E-3,1.769798192E-2
3.647740114E0,5.991935730E-3,-1.557903271E-2,3.195699072E-3,1.699476527E-2
3.650247406E0,3.861469682E-3,-1.344856713E-2,0.000000000E0,1.399195862E-2
3.652789645E0,7.057168987E-3,-1.131810062E-2,-1.065233024E-3,1.338049913E-2
3.655296989E0,8.122402243E-3,-9.187635034E-3,1.065233024E-3,1.230937761E-2
3.657804333E0,3.861469682E-3,-1.664426550E-2,0.000000000E0,1.708632559E-2
3.660311624E0,5.991935730E-3,-1.557903271E-2,1.065233024E-3,1.672555755E-2
3.662818968E0,3.861469682E-3,-1.664426550E-2,2.130466048E-3,1.721863548E-2
3.665326260E0,7.057168987E-3,-1.344856713E-2,4.260932095E-3,1.577412864E-2
3.667833552E0,3.861469682E-3,-1.451379992E-2,5.326164886E-3,1.593516139E-2
3.670340895E0,5.991935730E-3,-9.187635034E-3,5.326164886E-3,1.219360339E-2
3.672848239E0,8.122402243E-3,-4.926702939E-3,5.326164886E-3,1.089099869E-2
3.675355531E0,8.122402243E-3,-2.796236658E-3,7.456631400E-3,1.137513558E-2
3.677862874E0,8.122402243E-3,-8.122402243E-3,1.171756350E-2,1.640878212E-2
3.680370166E0,1.025286783E-2,-5.991935730E-3,1.065232977E-2,1.595295339E-2
3.682935739E0,9.187635034E-3,-1.731003635E-3,8.521864191E-3,1.265034309E-2
3.685443083E0,1.238333434E-2,-1.731003635E-3,1.065232977E-2,1.642606077E-2
3.687950427E0,1.131810062E-2,1.464695437E-3,1.384802908E-2,1.794471074E-2
3.690457718E0,9.187635034E-3,-1.731003635E-3,1.171756350E-2,1.499034040E-2
3.692965062E0,7.057168987E-3,4.660394508E-3,1.171756350E-2,1.445075103E-2
3.695472354E0,7.057168987E-3,6.790860556E-3,1.171756350E-2,1.527156559E-2
3.697979697E0,1.238333434E-2,7.856093347E-3,1.278279629E-2,1.945417829E-2
3.700486989E0,1.025286783E-2,8.921326138E-3,1.278279629E-2,1.865773940E-2
3.702994333E0,1.131810062E-2,9.986559860E-3,1.278279629E-2,1.977955157E-2
3.705501624E0,1.025286783E-2,1.211702544E-2,1.491326280E-2,2.177955490E-2
3.708008968E0,9.187635034E-3,1.318225823E-2,1.278279629E-2,2.053252178E-2
3.710516260E0,5.991935730E-3,1.531272475E-2,8.521864191E-3,1.852039422E-2
3.713055583E0,4.926702939E-3,1.957365684E-2,9.587096982E-3,2.234530986E-2
3.715562927E0,7.057168987E-3,1.744319126E-2,1.278279629E-2,2.274793257E-2
3.718070270E0,2.796236658E-3,6.790860556E-3,1.065232977E-2,1.293858014E-2
3.720577562E0,1.731003635E-3,9.986559860E-3,9.587096982E-3,1.395135047E-2
3.723084854E0,4.926702939E-3,6.790860556E-3,1.065232977E-2,1.355951026E-2
3.725592197E0,8.122402243E-3,4.660394508E-3,1.278279629E-2,1.584590092E-2
3.728099541E0,7.057168987E-3,-6.657706108E-4,7.456631400E-3,1.028825721E-2
3.730606833E0,3.861469682E-3,-8.122402243E-3,6.391398143E-3,1.103332844E-2
3.733114177E0,5.991935730E-3,-4.926702939E-3,8.521864191E-3,1.152379560E-2
3.735621468E0,7.057168987E-3,-4.926702939E-3,7.456631400E-3,1.138759798E-2
3.738128812E0,9.187635034E-3,-1.344856713E-2,4.260932095E-3,1.683544290E-2
3.740636104E0,1.664426550E-2,-1.451379992E-2,4.260932095E-3,2.249083157E-2
3.743186364E0,1.557903271E-2,-1.451379992E-2,4.260932095E-3,2.171433146E-2
3.745693708E0,1.451379992E-2,-2.090519853E-2,4.260932095E-3,2.580374500E-2
3.748201052E0,1.664426550E-2,-2.197043039E-2,2.130466048E-3,2.764543852E-2
3.750708343E0,1.451379992E-2,-2.503297664E-2,-5.326164886E-3,2.942224227E-2
3.753215687E0,1.025286783E-2,-1.877473295E-2,-4.260932095E-3,2.181209385E-2
3.755722979E0,1.025286783E-2,-2.290250920E-2,-3.195699072E-3,2.529542881E-2
3.758230322E0,1.025286783E-2,-3.035914153E-2,-1.065233024E-3,3.206140194E-2
3.760737614E0,1.025286783E-2,-2.929390781E-2,-3.195699072E-3,3.120042990E-2
3.763244958E0,5.991935730E-3,-3.568530455E-2,-6.391398143E-3,3.674498911E-2
3.765752249E0,3.861469682E-3,-3.781577200E-2,-4.260932095E-3,3.825047846E-2
3.768259593E0,3.861469682E-3,-4.101147130E-2,-1.065233024E-3,4.120663111E-2
3.770766885E0,4.926702939E-3,-4.101147130E-2,1.065233024E-3,4.132006657E-2
3.773320270E0,3.861469682E-3,-3.781577200E-2,-3.195699072E-3,3.814650774E-2
3.775827614E0,-2.529928461E-3,-3.888100386E-2,-4.260932095E-3,3.919551685E-2
3.778334958E0,-2.529928461E-3,-4.527240247E-2,-5.326164886E-3,4.565478064E-2
3.780842249E0,-1.464695437E-3,-4.207670316E-2,-1.065233024E-3,4.211566221E-2
3.783349593E0,-5.725627299E-3,-4.420717061E-2,-2.130466048E-3,4.462729688E-2
3.785856885E0,-8.921326138E-3,-4.527240247E-2,0.000000000E0,4.614304373E-2
3.788364229E0,-7.856093347E-3,-4.314193875E-2,-1.065233024E-3,4.386433406E-2
3.790871520E0,-8.921326138E-3,-3.888100386E-2,-3.195699072E-3,4.001918307E-2
3.793378864E0,-1.424749196E-2,-3.248960897E-2,-3.195699072E-3,3.561991312E-2
3.795886156E0,-1.318225823E-2,-2.716344222E-2,0.000000000E0,3.019312050E-2
3.798393499E0,-1.744319126E-2,-2.290250920E-2,3.195699072E-3,2.896553713E-2
3.800900791E0,-1.424749196E-2,-2.197043039E-2,1.065233024E-3,2.620735698E-2
3.803453708E0,-1.744319126E-2,-1.983996481E-2,2.130466048E-3,2.650335848E-2
3.805961052E0,-1.957365684E-2,-1.344856713E-2,6.391398143E-3,2.459353513E-2
3.808468343E0,-1.744319126E-2,-1.131810062E-2,4.260932095E-3,2.122545324E-2
3.810975687E0,-1.531272475E-2,-9.187635034E-3,4.260932095E-3,1.835885941E-2
3.813483031E0,-1.424749196E-2,3.994623839E-4,3.195699072E-3,1.460695347E-2
3.815990322E0,-1.531272475E-2,2.529928461E-3,1.065233024E-3,1.555682482E-2
3.818497666E0,-1.531272475E-2,1.464695437E-3,1.065233024E-3,1.541945503E-2
3.821004958E0,-1.424749196E-2,1.464695437E-3,1.065233024E-3,1.436214055E-2
3.823512302E0,-1.318225823E-2,-6.657706108E-4,4.260932095E-3,1.386977739E-2
3.826019593E0,-1.211702544E-2,-1.731003635E-3,7.456631400E-3,1.433248168E-2
3.828526937E0,-6.790860556E-3,-3.861469682E-3,9.587096982E-3,1.236685747E-2
3.831034229E0,-5.725627299E-3,-2.796236658E-3,8.521864191E-3,1.064067276E-2
3.833591104E0,-7.856093347E-3,5.725627299E-3,4.260932095E-3,1.061397913E-2
3.836098447E0,-3.595161485E-3,5.725627299E-3,4.260932095E-3,7.991466473E-3
3.838605791E0,-3.595161485E-3,-2.796236658E-3,5.326164886E-3,7.008006703E-3
3.841113083E0,-2.529928461E-3,1.464695437E-3,3.195699072E-3,4.331092621E-3
3.843620427E0,-1.464695437E-3,3.595161485E-3,4.260932095E-3,5.764205162E-3
3.846127718E0,1.731003635E-3,3.595161485E-3,3.195699072E-3,5.112147517E-3
3.848635062E0,7.057168987E-3,5.725627299E-3,4.260932095E-3,1.003703066E-2
3.851142354E0,5.991935730E-3,6.790860556E-3,5.326164886E-3,1.050652718E-2
3.853649697E0,5.991935730E-3,1.211702544E-2,3.195699072E-3,1.389021569E-2
3.856156989E0,1.025286783E-2,1.744319126E-2,4.260932095E-3,2.067708302E-2
3.858664333E0,2.796236658E-3,1.211702544E-2,1.065233024E-3,1.248102425E-2
3.861171624E0,5.991935730E-3,1.211702544E-2,-2.130466048E-3,1.368446144E-2
3.863730427E0,5.991935730E-3,9.986559860E-3,0.000000000E0,1.164622993E-2
3.866237770E0,3.861469682E-3,9.986559860E-3,1.065233024E-3,1.075997432E-2
3.868745114E0,7.057168987E-3,7.856093347E-3,0.000000000E0,1.056038999E-2
3.871252406E0,1.344856713E-2,2.529928461E-3,0.000000000E0,1.368446184E-2
3.873759749E0,8.122402243E-3,8.921326138E-3,0.000000000E0,1.206496905E-2
3.876267041E0,7.057168987E-3,-6.657706108E-4,1.065233024E-3,7.168096401E-3
3.878774385E0,3.861469682E-3,-9.187635034E-3,0.000000000E0,9.966121895E-3
3.881281677E0,7.057168987E-3,-1.131810062E-2,-4.260932095E-3,1.400209191E-2
3.883789020E0,8.122402243E-3,-1.664426550E-2,-5.326164886E-3,1.927104109E-2
3.886296312E0,3.861469682E-3,-1.983996481E-2,-2.130466048E-3,2.032422292E-2
3.888803656E0,7.057168987E-3,-2.396774292E-2,-4.260932095E-3,2.534584536E-2
3.891310947E0,2.796236658E-3,-2.929390781E-2,-1.065233024E-3,2.944633586E-2
3.893859697E0,2.796236658E-3,-2.716344222E-2,-1.065233024E-3,2.732775612E-2
3.896367041E0,1.731003635E-3,-3.035914153E-2,1.065233024E-3,3.042710255E-2
3.898874385E0,-3.994623839E-4,-3.781577200E-2,4.260932095E-3,3.805716390E-2
3.901381677E0,6.657706108E-4,-4.101147130E-2,1.065233024E-3,4.103070497E-2
3.903889020E0,-1.464695437E-3,-4.101147130E-2,4.260932095E-3,4.125823134E-2
3.906396312E0,-3.595161485E-3,-4.420717061E-2,3.195699072E-3,4.446809656E-2
3.908903656E0,-4.660394508E-3,-3.888100386E-2,2.130466048E-3,3.921722356E-2
3.911410947E0,-4.660394508E-3,-3.142437339E-2,4.260932095E-3,3.205255157E-2
3.913918291E0,-3.595161485E-3,-2.396774292E-2,5.326164886E-3,2.481422816E-2
3.916425583E0,-9.986559860E-3,-1.983996481E-2,5.326164886E-3,2.284126997E-2
3.918932927E0,-5.725627299E-3,-2.290250920E-2,6.391398143E-3,2.445726284E-2
3.921440218E0,-4.660394508E-3,-1.557903271E-2,8.521864191E-3,1.835885907E-2
3.924000947E0,-9.986559860E-3,-1.557903271E-2,2.130466048E-3,1.862730586E-2
3.926508291E0,-5.725627299E-3,-1.131810062E-2,2.130466048E-3,1.286161324E-2
3.929015635E0,-4.660394508E-3,-8.122402243E-3,7.456631400E-3,1.197054915E-2
3.931522927E0,6.657706108E-4,-8.122402243E-3,6.391398143E-3,1.035696089E-2
3.934030270E0,-3.595161485E-3,-2.796236658E-3,4.260932095E-3,6.236959826E-3
3.936537562E0,-6.790860556E-3,-6.657706108E-4,7.456631400E-3,1.010744228E-2
3.939044906E0,1.731003635E-3,-2.796236658E-3,5.326164886E-3,6.259660169E-3
3.941552197E0,-1.464695437E-3,-3.861469682E-3,-1.065233024E-3,4.265091116E-3
3.944059541E0,-2.529928461E-3,-2.796236658E-3,2.130466048E-3,4.331092593E-3
3.946566833E0,-2.529928461E-3,-4.926702939E-3,4.260932095E-3,6.987737988E-3
3.949074177E0,6.657706108E-4,-2.796236658E-3,2.130466048E-3,3.577859072E-3
3.951581468E0,6.657706108E-4,-2.796236658E-3,2.130466048E-3,3.577859072E-3
3.954123812E0,2.796236658E-3,3.595161485E-3,1.065233024E-3,4.677482971E-3
3.956631156E0,1.731003635E-3,4.660394508E-3,-1.065233024E-3,5.084326106E-3
3.959138499E0,-1.464695437E-3,3.994623839E-4,0.000000000E0,1.518190673E-3
3.961645791E0,1.731003635E-3,3.595161485E-3,1.065233024E-3,4.129925069E-3
3.964153135E0,2.796236658E-3,4.660394508E-3,0.000000000E0,5.434907214E-3
3.966660427E0,-3.994623839E-4,5.725627299E-3,2.130466048E-3,6.122194357E-3
3.969167770E0,-3.994623839E-4,8.921326138E-3,0.000000000E0,8.930264848E-3
3.971675062E0,3.861469682E-3,9.986559860E-3,0.000000000E0,1.070711567E-2
3.974182406E0,1.731003635E-3,1.850842312E-2,0.000000000E0,1.858919310E-2
3.976689697E0,1.731003635E-3,1.957365684E-2,-2.130466048E-3,1.976520431E-2
3.979197041E0,-3.994623839E-4,1.637795754E-2,1.065233024E-3,1.641742321E-2
3.981704333E0,6.657706108E-4,1.957365684E-2,2.130466048E-3,1.970051213E-2
3.984255791E0,6.657706108E-4,1.637795754E-2,-1.065233024E-3,1.642606054E-2
3.986763135E0,-1.464695437E-3,1.318225823E-2,-1.065233024E-3,1.330608832E-2
3.989270427E0,1.731003635E-3,8.921326138E-3,-1.065233024E-3,9.149926505E-3
3.991777770E0,-2.529928461E-3,4.660394508E-3,1.065233024E-3,5.408746286E-3
3.994285114E0,-3.595161485E-3,4.660394508E-3,0.000000000E0,5.885954729E-3
3.996792406E0,-6.790860556E-3,-6.657706108E-4,1.065233024E-3,6.906066825E-3
3.999299697E0,-5.725627299E-3,-9.187635034E-3,1.065233024E-3,1.087796704E-2
4.001807041E0,-5.725627299E-3,-1.664426550E-2,0.000000000E0,1.760154488E-2
4.004314385E0,-8.921326138E-3,-1.770949923E-2,1.065233024E-3,1.985827647E-2
4.006821677E0,-7.856093347E-3,-1.877473295E-2,3.195699072E-3,2.060148763E-2
4.009329020E0,-6.790860556E-3,-2.503297664E-2,1.065233024E-3,2.595959222E-2
4.011836312E0,-9.986559860E-3,-2.503297664E-2,1.065233024E-3,2.697250487E-2
4.014388343E0,-8.921326138E-3,-2.197043039E-2,1.065233024E-3,2.373656658E-2
4.016895687E0,-8.921326138E-3,-2.290250920E-2,2.130466048E-3,2.467091148E-2
4.019402979E0,-1.105179265E-2,-2.503297664E-2,1.065233024E-3,2.738479070E-2
4.021910322E0,-6.790860556E-3,-2.197043039E-2,2.130466048E-3,2.309446869E-2
4.024417666E0,-4.660394508E-3,-1.770949923E-2,3.195699072E-3,1.858919397E-2
4.026924958E0,-6.790860556E-3,-1.557903271E-2,0.000000000E0,1.699476529E-2
4.029432302E0,-8.921326138E-3,-1.451379992E-2,1.065233024E-3,1.706971498E-2
4.031939593E0,-3.595161485E-3,-1.025286783E-2,6.391398143E-3,1.260541372E-2
4.034446937E0,-3.994623839E-4,-1.731003635E-3,4.260932095E-3,4.616436515E-3
4.036954281E0,-3.595161485E-3,3.994623839E-4,6.391398143E-3,7.344026588E-3
4.039461572E0,-3.994623839E-4,-2.796236658E-3,7.456631400E-3,7.973698105E-3
4.041968916E0,3.861469682E-3,4.660394508E-3,9.587096982E-3,1.133766526E-2
4.044524541E0,4.926702939E-3,1.318225823E-2,8.521864191E-3,1.645194527E-2
4.047031885E0,5.991935730E-3,8.921326138E-3,5.326164886E-3,1.199422304E-2
