"Time (s)","Linear Acceleration x (m/s^2)","Linear Acceleration y (m/s^2)","Linear Acceleration z (m/s^2)","Absolute acceleration (m/s^2)"
5.457621200E-2,-2.066275477E-2,-1.231676340E-2,-4.001426697E-2,4.668826037E-2
5.956256600E-2,9.632465243E-2,4.457136989E-2,-1.719532013E-1,2.020716435E-1
6.454886800E-2,8.149689436E-2,5.347973108E-2,-4.156589508E-2,1.059695667E-1
6.953517000E-2,-1.958695054E-2,5.367398262E-4,1.617145538E-2,2.540576097E-2
7.475194100E-2,-5.061350763E-2,-3.186583519E-2,5.540275574E-2,8.152682963E-2
7.973829500E-2,-8.177174628E-2,-6.854838133E-2,5.898380280E-2,1.219204169E-1
8.472459700E-2,-9.588611126E-2,-6.569582224E-2,1.374359131E-1,1.799964377E-1
8.971095100E-2,-7.435300946E-2,-7.721574605E-2,1.820869446E-1,2.112967033E-1
9.469725300E-2,-5.040751398E-2,-6.665164232E-2,1.912860870E-1,2.087432058E-1
9.968355500E-2,-3.771886230E-3,-4.629357159E-2,1.941566467E-1,1.996349803E-1
1.048713680E-1,2.878777683E-2,-4.128611088E-2,1.505632401E-1,1.587531678E-1
1.098577220E-1,3.019632399E-2,-5.064666271E-2,1.259183884E-1,1.390407960E-1
1.148440240E-1,4.063522816E-2,-3.738796711E-2,8.499145508E-2,1.013539801E-1
1.198303780E-1,7.127571106E-2,-3.870995343E-2,4.421043396E-2,9.237559176E-2
1.250001180E-1,2.324783802E-2,-3.344151378E-2,1.043319702E-3,4.074169035E-2
1.300479830E-1,-2.028620243E-2,-3.546842933E-2,-3.093242645E-2,5.124797064E-2
1.350611080E-1,1.881122589E-3,-2.390691638E-2,-4.550838470E-2,5.144018226E-2
1.400802220E-1,3.210321069E-2,-1.644045115E-3,-8.473968506E-2,9.063185557E-2
1.450664720E-1,3.357779980E-2,4.739612341E-2,-1.431627274E-1,1.544973387E-1
1.500976700E-1,2.346342802E-2,7.414487004E-2,-1.788053513E-1,1.949855068E-1
1.550840240E-1,4.607185721E-2,7.961493731E-2,-2.456226349E-1,2.622815911E-1
1.600703260E-1,4.946094751E-2,8.529916406E-2,-2.665090561E-1,2.841644061E-1
1.650566280E-1,2.513650060E-2,9.631541371E-2,-2.778005600E-1,2.950960076E-1
1.700429830E-1,2.265113592E-2,6.368196011E-2,-2.613229752E-1,2.699225136E-1
1.750292850E-1,1.111316681E-2,6.503319740E-2,-1.947774887E-1,2.056479743E-1
1.801950660E-1,-1.608788967E-2,2.710059285E-2,-1.120557785E-1,1.164034356E-1
1.851814200E-1,-3.093563020E-2,2.736565471E-2,-6.451988220E-2,7.660748967E-2
1.901677220E-1,-1.062117517E-2,4.143542051E-2,1.868820190E-2,4.667924941E-2
1.951540760E-1,-3.296661377E-2,1.292532682E-2,6.228065491E-2,7.164315510E-2
2.001403780E-1,-4.579821229E-2,-1.251399517E-3,3.256797791E-2,5.621134614E-2
2.051266800E-1,-4.459306598E-2,-3.629690409E-2,5.262947083E-2,7.794785423E-2
2.103608470E-1,-5.061326921E-2,-5.215387046E-2,4.423713684E-2,8.508027680E-2
2.153472010E-1,-5.432368815E-2,-3.768789768E-2,1.978397369E-2,6.901337799E-2
2.203335030E-1,-7.193194330E-2,-5.634549260E-2,2.975463867E-3,9.142140006E-2
2.254611600E-1,-5.391995609E-2,-7.210333645E-2,-4.611873627E-2,1.011592340E-1
2.304716280E-1,-3.622940183E-2,-4.075795412E-2,-7.768917084E-2,9.491779415E-2
2.354578780E-1,-2.569989860E-2,-3.559121490E-2,-1.038951874E-1,1.127893139E-1
2.405121490E-1,8.186027408E-3,-2.553743124E-2,-1.202058792E-1,1.231609712E-1
2.454985030E-1,4.165326059E-2,-2.732655406E-2,-9.408473969E-2,1.064597244E-1
2.504848050E-1,4.639561474E-2,-1.010015607E-2,-8.031272888E-2,9.329898521E-2
2.554711600E-1,4.153440893E-2,1.611796021E-2,-8.562469482E-2,9.652193600E-2
2.604574620E-1,2.018390596E-2,-1.203915477E-2,-8.148384094E-2,8.480535149E-2
2.654437640E-1,-1.498837769E-2,-9.174555540E-3,-4.462146759E-2,4.795726540E-2
2.706249100E-1,-9.907215834E-3,-1.825630665E-2,1.729488373E-2,2.702884868E-2
2.756112640E-1,-4.296074808E-2,-5.808955431E-2,5.922412872E-2,9.342119469E-2
2.805975660E-1,-6.849218905E-2,-4.820138216E-2,7.688331604E-2,1.136907977E-1
2.855839200E-1,-6.797626615E-2,-4.357284307E-2,4.960918427E-2,9.476516542E-2
2.905702220E-1,-6.535357237E-2,-2.994897962E-2,3.933525085E-2,8.194688988E-2
2.955565240E-1,-6.301145256E-2,-7.179915905E-3,-2.245616913E-2,6.727758823E-2
3.007585030E-1,-1.823669672E-2,1.297643781E-2,-9.019470215E-2,9.293034672E-2
3.057448580E-1,4.855662584E-3,3.548496962E-2,-1.450071335E-1,1.493647525E-1
3.107311600E-1,6.100681424E-2,2.736991644E-2,-1.589183807E-1,1.724122833E-1
3.157175140E-1,7.214567065E-2,5.998387933E-2,-1.397132874E-1,1.682939875E-1
3.207038160E-1,8.357965946E-2,8.335557580E-2,-1.585855484E-1,1.976944300E-1
3.256901180E-1,7.170109451E-2,6.692814827E-2,-1.701517105E-1,1.963976287E-1
3.308939720E-1,1.503959298E-3,3.971236944E-2,-1.297693253E-1,1.357181342E-1
3.358803260E-1,2.935528755E-2,2.033716440E-2,-7.123374939E-2,7.968425325E-2
3.408666280E-1,7.834832370E-2,1.090738177E-2,4.056262970E-2,8.889745628E-2
3.458529830E-1,6.092903018E-2,2.044013143E-2,1.600484848E-1,1.724693108E-1
3.508392850E-1,3.456023335E-2,-1.518443227E-2,2.494325638E-1,2.522728297E-1
3.558255870E-1,3.204202652E-2,-2.945065498E-2,2.549676895E-1,2.586552826E-1
3.610280350E-1,3.167255223E-2,-7.463183999E-2,2.487001419E-1,2.615813883E-1
3.660143890E-1,-4.549980164E-3,-6.329931319E-2,2.780170441E-1,2.851683400E-1
3.710006910E-1,-4.327747226E-2,-8.118890226E-2,2.409038544E-1,2.578744743E-1
3.759870450E-1,-8.926619589E-2,-4.041983187E-2,1.855154037E-1,2.098051038E-1
3.809733470E-1,-9.524768591E-2,-3.622180223E-2,1.687669754E-1,1.971457142E-1
3.859596490E-1,-4.061226547E-2,-3.024636209E-2,6.964015961E-2,8.610429929E-2
3.911610550E-1,-3.906592727E-3,-8.316725492E-3,1.208019257E-2,1.517762966E-2
3.961474100E-1,1.305626333E-2,1.566168666E-2,-2.815055847E-2,3.475929204E-2
4.011337120E-1,5.795563757E-2,2.519112825E-2,-7.493495941E-2,9.802396141E-2
4.061200660E-1,8.588236570E-2,7.247388363E-2,-1.163940430E-1,1.617894242E-1
4.111063680E-1,9.280282259E-2,9.828323126E-2,-1.289873123E-1,1.868413342E-1
4.160926700E-1,1.216570139E-1,1.172967553E-1,-1.722173691E-1,2.412836092E-1
4.212897530E-1,1.294922680E-1,9.196448326E-2,-1.936817169E-1,2.504761887E-1
4.262761080E-1,7.199375331E-2,7.463300228E-2,-2.031211853E-1,2.280600830E-1
4.312624100E-1,2.554021776E-2,8.186367154E-2,-1.959571838E-1,2.138999330E-1
4.362487640E-1,1.545277238E-2,4.936105013E-2,-1.841993332E-1,1.913235370E-1
4.412350660E-1,-3.674402833E-3,7.194986939E-2,-1.418600082E-1,1.591054584E-1
4.462213680E-1,2.244468033E-2,6.124824286E-2,-7.874488831E-2,1.022539406E-1
4.514308470E-1,2.668119967E-2,5.298003554E-2,-4.537582397E-3,5.949252252E-2
4.564172010E-1,7.752071321E-2,7.962909341E-2,3.806209564E-2,1.174690454E-1
4.614035030E-1,9.866110981E-2,6.047064066E-2,6.600284576E-2,1.332181993E-1
4.663898580E-1,1.233955771E-1,7.643869519E-2,3.683471680E-2,1.497535940E-1
4.713761600E-1,1.398498565E-1,1.249254942E-1,8.035659790E-3,1.876937220E-1
4.763624620E-1,1.105758399E-1,9.681963921E-2,-3.838539124E-3,1.470231046E-1
4.815540240E-1,8.562305570E-2,9.026736021E-2,-6.531429291E-2,1.405185427E-1
4.865403780E-1,6.331120431E-2,8.625000715E-2,-9.769630432E-2,1.448859559E-1
4.915266800E-1,2.022774518E-2,6.121519208E-2,-1.107988358E-1,1.281906526E-1
4.965129830E-1,1.819913089E-2,6.304153800E-2,-1.214284897E-1,1.380229038E-1
5.014993370E-1,2.149680257E-2,9.376415610E-2,-1.035442352E-1,1.413337827E-1
5.064856390E-1,4.681697488E-2,1.057264507E-1,-8.589172363E-2,1.440392297E-1
5.116992850E-1,5.617298186E-2,9.672021866E-2,-1.158847809E-1,1.610574029E-1
5.166856390E-1,4.227860272E-2,7.640624046E-2,-7.922172546E-2,1.179045191E-1
5.216719410E-1,7.636597753E-2,7.780113816E-2,-2.872371674E-2,1.127378886E-1
5.266582950E-1,4.629407823E-2,6.264060736E-2,2.288818359E-3,7.792448947E-2
5.316445970E-1,9.306371212E-3,8.321321011E-2,3.774070740E-2,9.184447657E-2
5.366308990E-1,-2.035443485E-2,5.114981532E-2,9.420776367E-2,1.091132868E-1
5.418256910E-1,-1.694358885E-2,9.886145592E-3,7.423591614E-2,7.678406295E-2
5.468120450E-1,-4.954937100E-2,6.389290094E-3,8.770656586E-2,1.009376287E-1
5.517983470E-1,-5.884239078E-2,-1.182395220E-2,1.200704575E-1,1.342354184E-1
5.567847010E-1,-6.624457240E-2,-3.987361491E-2,1.545429230E-1,1.728055658E-1
5.617710030E-1,-3.850148618E-2,-4.202347994E-2,2.124633789E-1,2.199750547E-1
5.667573050E-1,-2.794700861E-2,-5.663630366E-2,2.366676331E-1,2.449495350E-1
5.719582950E-1,-2.273745835E-2,-2.163386345E-2,2.179698944E-1,2.202178261E-1
5.769446490E-1,-1.020936668E-2,-3.221485019E-2,1.733465195E-1,1.766098626E-1
5.819309510E-1,4.936218262E-3,-7.246583700E-3,1.220149994E-1,1.223296338E-1
5.869173050E-1,-3.489807248E-3,8.108526468E-3,6.876659393E-2,6.933088343E-2
5.919036080E-1,1.226368546E-2,1.181617379E-2,2.309894562E-2,2.869810504E-2
5.968899100E-1,9.297877550E-3,1.595461369E-2,-1.506805420E-2,2.383372573E-2
6.020881910E-1,3.995943069E-2,5.619406700E-2,-6.955146790E-2,9.793842940E-2
6.070745450E-1,3.526073694E-2,8.008235693E-2,-1.402263641E-1,1.652874365E-1
6.120608470E-1,5.456575751E-2,9.968823195E-2,-1.652078629E-1,2.005213291E-1
6.170472010E-1,5.254191160E-2,1.104574203E-1,-1.781444550E-1,2.160947501E-1
6.220335030E-1,5.323240161E-2,1.336310506E-1,-1.482534409E-1,2.065672505E-1
6.270198050E-1,3.254228830E-2,9.289208055E-2,-9.962940216E-2,1.400498373E-1
6.322222010E-1,1.202279329E-2,5.041122437E-2,1.509666443E-2,5.397914762E-2
6.372085550E-1,-1.554965973E-2,3.886833787E-2,1.003742218E-1,1.087544206E-1
6.421948580E-1,-4.996764660E-2,1.771378517E-2,1.968231201E-1,2.038378878E-1
6.471812120E-1,-3.194458783E-2,-1.544672251E-2,2.069606781E-1,2.099804282E-1
6.521675140E-1,-5.947056413E-2,-5.596727133E-2,2.835512161E-1,2.950768978E-1
6.571538160E-1,-7.737247646E-2,-6.830948591E-2,3.262672424E-1,3.422031552E-1
6.623523050E-1,-9.283731878E-2,-8.139555156E-2,3.425235748E-1,3.640966944E-1
6.673386600E-1,-8.934913576E-2,-8.788539469E-2,3.159065247E-1,3.398588574E-1
6.723249620E-1,-6.715081632E-2,-6.405201554E-2,2.681541443E-1,2.837578861E-1
6.773113160E-1,-6.889571249E-2,-8.601465821E-2,2.279396057E-1,2.531829467E-1
6.822976180E-1,-9.696918726E-2,-9.622146189E-2,2.284584045E-1,2.661857164E-1
6.872839200E-1,-9.646011889E-2,-9.250088036E-2,1.862287521E-1,2.292206699E-1
6.924865240E-1,-6.498312950E-2,-8.429773152E-2,1.372289658E-1,1.736683728E-1
6.974728780E-1,-2.446578443E-2,-5.707162619E-2,7.438755035E-2,9.689815670E-2
7.024591800E-1,-3.290474415E-3,-3.007243574E-2,1.916885376E-4,3.025252646E-2
7.074455350E-1,5.566963553E-2,3.824621439E-3,-1.874732971E-2,5.886593600E-2
7.124318370E-1,5.238026381E-2,3.056588769E-2,-5.178833008E-2,7.974958720E-2
7.174181390E-1,7.055573165E-2,6.694304943E-2,-8.218955994E-2,1.273365890E-1
7.226225140E-1,6.719058752E-2,6.769457459E-2,-8.146381378E-2,1.254331832E-1
7.276088680E-1,5.695033073E-2,5.448952317E-2,-8.551025391E-2,1.162946767E-1
7.325951700E-1,3.017121553E-2,4.407605529E-2,-1.085357666E-1,1.209669935E-1
7.375814720E-1,3.935463727E-2,6.979292631E-2,-1.266326904E-1,1.498521882E-1
7.425678260E-1,5.584631860E-2,1.028867364E-1,-1.374721527E-1,1.805632427E-1
7.475541280E-1,7.003605366E-2,9.330248833E-2,-6.034183502E-2,1.313451187E-1
7.527728780E-1,7.489576936E-2,7.697635889E-2,-4.801082611E-2,1.176425753E-1
7.577663680E-1,3.935565054E-2,6.316432357E-2,-3.815841675E-2,8.363410650E-2
7.627598580E-1,1.862180233E-2,4.471758008E-2,-2.264022827E-3,4.849287875E-2
7.677533470E-1,5.336284637E-3,1.434531808E-2,2.858352661E-2,3.242348035E-2
7.727468370E-1,-2.467703819E-2,1.469725370E-2,6.869316101E-2,7.445613373E-2
7.777403260E-1,-3.796954453E-2,2.202039957E-2,6.334304810E-2,7.706442792E-2
7.829025140E-1,-2.510325611E-2,1.688253880E-2,-1.796436310E-2,3.518397256E-2
7.878960030E-1,2.997694910E-2,3.766912222E-2,-6.056594849E-2,7.736804484E-2
7.928894930E-1,7.944723964E-2,1.081213355E-2,-5.291938782E-2,9.606886970E-2
7.978829830E-1,7.118983567E-2,2.693226933E-2,-4.532814026E-2,8.858882623E-2
8.028764720E-1,6.052392721E-2,4.988822341E-2,-2.591514587E-2,8.260493560E-2
8.078699620E-1,2.608981729E-2,3.707015514E-2,-1.616573334E-2,4.812697687E-2
8.130392850E-1,1.103517413E-2,-1.580506563E-3,-1.125526428E-2,1.584152907E-2
8.180327740E-1,3.212068975E-2,-2.786508203E-2,-1.115131378E-2,4.396081557E-2
8.230262640E-1,1.068277657E-2,-1.096296310E-2,-5.620002747E-2,5.824732923E-2
8.280197530E-1,4.141762853E-3,-7.938057184E-3,-7.476902008E-2,7.530320920E-2
8.330132430E-1,2.182240784E-2,-2.044707537E-3,-5.520057678E-2,5.939277725E-2
8.380067330E-1,-1.703876257E-2,-1.959276199E-2,1.169013977E-2,2.847551791E-2
8.431844410E-1,-2.652934194E-2,-2.220183611E-2,4.353523254E-3,3.486661261E-2
8.481779300E-1,-1.645262539E-2,-7.916778326E-3,8.937835693E-3,2.032853089E-2
8.531714200E-1,1.063537598E-2,1.368501782E-2,-1.029014587E-2,2.015633987E-2
8.581649100E-1,2.125740051E-3,6.649851799E-3,1.102161407E-2,1.304665768E-2
8.631583990E-1,-1.824246347E-2,-4.974037409E-3,5.115890503E-2,5.454137957E-2
8.681518890E-1,-3.606399894E-2,-1.918739080E-2,8.147144318E-2,9.113925630E-2
8.733096490E-1,-5.405345559E-2,-2.175195515E-2,9.729576111E-2,1.134080630E-1
8.783031390E-1,-9.637123346E-2,-2.714487910E-2,1.130189896E-1,1.509885794E-1
8.832966280E-1,-1.388546228E-1,-3.775943816E-2,1.215095520E-1,1.883373375E-1
8.882901180E-1,-1.196894273E-1,-3.227359056E-2,1.038274765E-1,1.617012323E-1
8.932836080E-1,-6.345088780E-2,-2.481973171E-2,5.781364441E-2,8.935575933E-2
8.982770970E-1,-1.056939363E-2,-5.915552378E-3,7.159137726E-2,7.260875388E-2
9.034349620E-1,3.907884657E-2,-9.098678827E-3,1.066579819E-1,1.139555497E-1
9.084284510E-1,4.293562472E-2,-3.376749158E-2,9.155464172E-2,1.066112742E-1
9.134219410E-1,1.123209298E-2,-4.883328080E-2,8.845615387E-2,1.016628761E-1
9.184154300E-1,-5.853340030E-3,-3.789919615E-2,6.875896454E-2,7.872995531E-2
9.234089200E-1,-2.713640034E-2,-6.025989354E-2,1.595878601E-2,6.798765949E-2
9.284024100E-1,-5.717802048E-2,-6.316903234E-2,-5.538940430E-3,8.538344414E-2
9.335653260E-1,-6.995561719E-2,-5.604402721E-2,-3.875637054E-2,9.765642641E-2
9.385588160E-1,-1.060585603E-1,-3.909239173E-2,-7.884120941E-2,1.378135320E-1
9.435523050E-1,-7.503819466E-2,-1.220870018E-2,-1.542463303E-1,1.719642795E-1
9.485457950E-1,-1.809389889E-2,7.148981094E-4,-1.411437988E-1,1.423006402E-1
9.535392850E-1,1.240551472E-2,2.798664570E-2,-8.777523041E-2,9.296042279E-2
9.585327740E-1,4.542827606E-3,2.869516611E-3,-3.722667694E-2,3.761245650E-2
9.637022010E-1,8.467629552E-3,2.319663763E-2,2.002906799E-2,3.179541338E-2
9.686956910E-1,-2.130958438E-2,9.530901909E-3,4.119777679E-2,4.735180345E-2
9.736891800E-1,-4.882089794E-2,-2.349361777E-2,6.933593750E-2,8.799376330E-2
9.786826700E-1,-7.197796553E-2,-1.632009447E-2,7.113361359E-2,1.025044584E-1
9.836761600E-1,-8.100053668E-2,-4.504522681E-2,7.530403137E-2,1.194188283E-1
9.886696490E-1,-9.263657779E-2,-5.741739273E-2,8.183479309E-2,1.362909604E-1
9.938369930E-1,-1.235740483E-1,-6.539079547E-2,6.695175171E-2,1.550130272E-1
9.988304830E-1,-9.964726865E-2,-6.643188000E-2,1.894283295E-2,1.212501701E-1
1.003823972E0,-8.542770892E-2,-4.618392885E-2,-3.341484070E-2,1.027005371E-1
1.008817462E0,-5.712796748E-2,-3.570818901E-2,-8.057975769E-2,1.050322654E-1
1.013810951E0,-5.310088396E-3,-1.511543989E-3,-1.653633118E-1,1.654554523E-1
1.018804441E0,4.143124819E-2,4.474154115E-2,-1.900644302E-1,1.996067170E-1
1.023968972E0,1.070299447E-1,6.507462263E-2,-1.908264160E-1,2.282648388E-1
1.028962462E0,1.106012911E-1,5.964267254E-2,-1.963529587E-1,2.331188074E-1
1.033955951E0,1.073293090E-1,7.351666689E-2,-1.400842667E-1,1.911750053E-1
1.038949441E0,6.649670005E-2,3.542137146E-2,-7.955169678E-2,1.095671353E-1
1.043942930E0,4.056471586E-2,1.453280449E-2,-5.041980743E-2,6.632386871E-2
1.048936420E0,2.920536697E-2,-1.093280315E-2,1.172637939E-2,3.331647668E-2
1.054099493E0,-3.145918250E-3,-3.858631849E-2,8.760070801E-2,9.577413440E-2
1.059092983E0,-3.299169242E-2,-5.214390159E-2,1.296005249E-1,1.435400094E-1
1.064086472E0,-1.064264774E-2,-4.699350893E-2,1.190061569E-1,1.283905028E-1
1.069079962E0,6.512120366E-3,-5.180275440E-2,1.346473694E-1,1.444155364E-1
1.074073451E0,-1.241640747E-2,-3.075328469E-2,1.216659546E-1,1.261052584E-1
1.079066941E0,-2.204981446E-2,-2.444072068E-2,1.064329147E-1,1.114069499E-1
1.084237253E0,-1.546286047E-2,-3.274068236E-2,6.046390533E-2,7.047649384E-2
1.089230743E0,-1.933127642E-3,-3.653642535E-2,1.963996887E-2,4.152560339E-2
1.094224233E0,-1.474756002E-2,1.195925474E-2,2.913475037E-3,1.920944136E-2
1.099217722E0,-2.983509004E-2,-1.126399636E-2,-4.692840576E-2,5.673874760E-2
1.104211212E0,-1.983970404E-3,-1.508355141E-2,-6.785583496E-2,6.954037676E-2
1.109204701E0,-3.923922777E-4,1.226934791E-2,-1.503810883E-1,1.508812864E-1
1.114367774E0,2.512961626E-2,2.082666755E-2,-2.156057358E-1,2.180621035E-1
1.119361264E0,-2.752004564E-2,1.350939274E-3,-2.232990265E-1,2.249925181E-1
1.124354753E0,-8.259579539E-3,1.565793157E-2,-1.786813736E-1,1.795561883E-1
1.129348243E0,-3.171710670E-2,6.455123425E-3,-1.629562378E-1,1.661396368E-1
1.134341733E0,-2.874645591E-2,-3.551426530E-2,-1.354990005E-1,1.429951080E-1
1.139335222E0,-1.134221256E-2,-2.951890230E-2,-1.534118652E-1,1.566371979E-1
1.144501472E0,2.958704531E-2,1.969766617E-2,-1.593103409E-1,1.632273752E-1
1.149494962E0,3.216029704E-2,-2.507358789E-3,-7.489681244E-2,8.154817023E-2
1.154488451E0,-5.828484893E-3,-4.368567467E-2,1.119613647E-2,4.547266079E-2
1.159481941E0,-1.504595578E-2,-5.616925657E-2,1.203336716E-1,1.336471424E-1
1.164475430E0,-1.225727797E-2,-9.013508260E-2,1.786813736E-1,2.005033846E-1
1.169468920E0,-1.460909843E-4,-8.400064707E-2,2.199316025E-1,2.354273557E-1
1.174653764E0,-1.425875723E-2,-9.479212761E-2,2.513427734E-1,2.690019505E-1
1.179647253E0,-6.389060616E-2,-9.895069897E-2,2.706308365E-1,2.951513172E-1
1.184640743E0,-9.173606336E-2,-8.215487003E-2,2.446346283E-1,2.738814148E-1
1.189634233E0,-1.313390732E-1,-1.085629165E-1,1.927356720E-1,2.572603705E-1
1.194627722E0,-9.966041148E-2,-6.621940434E-2,1.484117508E-1,1.906390697E-1
1.199621212E0,-4.929322004E-2,-4.586733878E-2,9.971332550E-2,1.203178357E-1
1.204781055E0,-3.746852279E-2,-1.618516445E-2,4.429817200E-2,6.023435723E-2
1.209774545E0,2.359566092E-2,-2.238819003E-2,-1.064395905E-2,3.422397013E-2
1.214768035E0,6.515392661E-2,-2.384522557E-2,4.414653778E-2,8.223469908E-2
1.219761524E0,6.851531565E-2,-2.534398437E-2,3.196525574E-2,7.973984949E-2
1.224755014E0,3.880104423E-2,1.932650805E-3,3.245353699E-3,3.898446476E-2
1.229748503E0,-2.846872807E-2,-3.727346659E-2,-3.950023651E-2,6.131923412E-2
1.234906993E0,-6.393918395E-2,-5.448932946E-2,-8.665370941E-2,1.206903957E-1
1.239900483E0,-4.421867430E-2,-6.151156127E-2,-1.144313812E-1,1.372352154E-1
1.244893972E0,-2.435666323E-2,-1.099380851E-2,-1.372470856E-1,1.398244377E-1
1.249887462E0,-2.079337835E-3,-9.182393551E-4,-1.171264648E-1,1.171485193E-1
1.254880951E0,3.447228670E-2,-2.390772104E-3,-4.730319977E-2,5.858026161E-2
1.259874441E0,4.237082601E-2,-3.256632388E-2,1.718997955E-2,5.613686618E-2
1.265038816E0,3.603704274E-2,-2.245494723E-2,6.215000153E-2,7.526962066E-2
1.270038035E0,1.536270976E-2,-2.452334762E-2,7.586288452E-2,8.119473306E-2
1.275037305E0,-5.538789928E-2,-3.168793023E-2,5.622100830E-2,8.504555299E-2
1.280036524E0,-6.704338640E-2,-4.411134124E-2,2.489852905E-2,8.402715534E-2
1.285035743E0,-1.076273322E-1,-2.121129632E-2,1.761341095E-2,1.111026281E-1
1.290035014E0,-1.055334508E-1,-2.024033666E-2,1.040744781E-2,1.079596936E-1
1.295179337E0,-5.905464292E-2,-6.255824864E-2,3.654861450E-2,9.347077910E-2
1.300178555E0,-2.262011170E-2,-1.455509663E-2,2.210044861E-2,3.481307398E-2
1.305177826E0,4.919846356E-2,-7.545143366E-3,-1.597690582E-2,5.227503730E-2
1.310177045E0,7.285897434E-2,-1.252490282E-2,-2.997779846E-2,7.977450553E-2
1.315176264E0,6.100592017E-2,-2.929311991E-2,-3.674221039E-2,7.700518940E-2
1.320175535E0,5.673444271E-2,-5.051299930E-2,-7.434368134E-2,1.062889601E-1
1.325311889E0,3.155615926E-2,-3.799128532E-2,-1.306533813E-1,1.396761791E-1
1.330311108E0,1.410198212E-2,-2.004051208E-2,-1.888999939E-1,1.904827964E-1
1.335310378E0,4.699003696E-2,-8.744746447E-3,-2.134284973E-1,2.187150146E-1
1.340309597E0,7.294149697E-2,1.722872257E-2,-1.997699738E-1,2.133666639E-1
1.345308816E0,8.473689854E-2,1.267066598E-2,-1.886243820E-1,2.071715358E-1
1.350308087E0,1.083649397E-1,4.182070494E-2,-1.728334427E-1,2.082386382E-1
1.355443660E0,1.391041577E-1,8.547505736E-2,-1.595687866E-1,2.282939986E-1
1.360442878E0,1.721586138E-1,8.896222711E-2,-1.606893539E-1,2.517418015E-1
1.365442149E0,1.409654170E-1,8.316776156E-2,-1.024227142E-1,1.930765075E-1
1.370441368E0,9.113720059E-2,5.619227886E-2,-1.851749420E-2,1.086575314E-1
1.375440587E0,1.084212959E-2,6.729516387E-2,5.281639099E-2,8.623086461E-2
1.380439858E0,-7.828904688E-2,5.666953325E-2,6.655025482E-2,1.173437143E-1
1.385579128E0,-8.609356731E-2,4.370605946E-2,5.642032623E-2,1.118283290E-1
1.390578347E0,-6.106629968E-2,4.959812760E-2,4.401588440E-2,9.014690953E-2
1.395577618E0,-6.744134426E-2,3.390732408E-2,7.211208344E-2,1.043944161E-1
1.400576837E0,-3.606046736E-2,4.178935289E-2,9.286212921E-2,1.080281554E-1
1.405576055E0,-2.430739999E-2,1.820665598E-2,1.300907135E-1,1.335886438E-1
1.410575326E0,-2.701050043E-2,-1.271876693E-2,2.169094086E-1,2.189543918E-1
1.415718035E0,-2.284583449E-2,-3.689527512E-2,2.293872833E-1,2.334560328E-1
1.420717253E0,-3.289932013E-2,-2.811241150E-2,2.346467972E-1,2.386038398E-1
1.425716524E0,-2.608212829E-2,-1.966384053E-2,2.089853287E-1,2.115226031E-1
1.430715795E0,-3.806731105E-2,-5.177354813E-2,2.025403976E-1,2.124905483E-1
1.435714962E0,-1.623524725E-2,-4.312394559E-2,1.272459030E-1,1.353321018E-1
1.440714233E0,1.301048696E-2,-2.959054708E-2,7.394218445E-2,8.069894602E-2
1.445842253E0,3.068308532E-2,-1.345151663E-2,3.769111633E-2,5.042831818E-2
1.450841472E0,2.772861719E-2,-2.283245325E-2,4.077911377E-3,3.615005524E-2
1.455840743E0,2.856619656E-2,-7.754266262E-3,6.096935272E-2,6.777476081E-2
1.460839962E0,5.733865499E-2,3.859913349E-2,1.149616241E-1,1.341409314E-1
1.465839180E0,-1.266531646E-2,2.838706970E-2,-5.721664429E-2,6.511513150E-2
1.470838451E0,-4.614973068E-2,4.279685020E-2,-1.875982285E-1,1.978748679E-1
1.475980118E0,-5.783280730E-2,6.255295873E-2,-1.387453079E-1,1.628120595E-1
1.480979337E0,-7.229595631E-2,7.972273231E-2,-7.127952576E-2,1.290859796E-1
1.485978608E0,-4.950294644E-2,8.703571558E-2,-1.385211945E-2,1.010823363E-1
1.490977826E0,7.394328713E-3,9.841349721E-2,2.175807953E-2,1.010609052E-1
1.495977045E0,2.204416692E-2,7.798162103E-2,8.087253571E-2,1.144877528E-1
1.500976316E0,3.513528407E-2,3.059855103E-2,1.395444870E-1,1.471170397E-1
1.506112983E0,2.044053376E-2,6.316721439E-3,1.764001846E-1,1.776928291E-1
1.511112201E0,-2.133615315E-2,-4.647254944E-3,2.129964828E-1,2.141128911E-1
1.516111472E0,-5.419769138E-2,-3.075622022E-2,1.970682144E-1,2.066862743E-1
1.521110691E0,-7.527604699E-2,-8.107395470E-2,1.432886124E-1,1.810278868E-1
1.526109910E0,-8.657874167E-2,-1.076288819E-1,1.303529739E-1,1.899256501E-1
1.531109180E0,-7.605054229E-2,-9.114833176E-2,2.249813080E-2,1.208216423E-1
1.536251212E0,-3.167292476E-2,-7.463221252E-2,-2.270793915E-2,8.419496308E-2
1.541250430E0,-3.278061748E-3,-8.139657974E-2,-5.569267273E-2,9.868040676E-2
1.546249701E0,2.348314226E-2,-7.327799499E-2,-1.074399948E-1,1.321532255E-1
1.551248920E0,1.516383886E-2,-4.787188768E-2,-1.492881775E-1,1.575075223E-1
1.556248139E0,-2.562163770E-2,-6.755183637E-2,-1.622991562E-1,1.776534126E-1
1.561247410E0,-5.610683560E-2,-7.719889283E-2,-1.562137604E-1,1.830584196E-1
1.566380430E0,-9.572356939E-2,-6.508316100E-2,-1.620674133E-1,1.991599007E-1
1.571379649E0,-8.318701386E-2,-6.720440090E-2,-1.916227341E-1,2.194442594E-1
1.576378920E0,-9.968045354E-2,-3.377625346E-2,-2.137966156E-1,2.382981766E-1
1.581378139E0,-8.572424948E-2,-2.448567748E-2,-2.310228348E-1,2.476282406E-1
1.586377358E0,-7.482788712E-2,-8.301854134E-3,-2.409658432E-1,2.524533047E-1
1.591376628E0,-5.762334913E-2,1.239618659E-2,-2.721929550E-1,2.785015630E-1
1.596514701E0,-4.157213122E-2,5.660259724E-2,-2.960157394E-1,3.042325001E-1
1.601513920E0,-4.968538880E-3,6.498447061E-2,-3.125085831E-1,3.192323328E-1
1.606513191E0,2.111065388E-2,5.439299345E-2,-3.264808655E-1,3.316534531E-1
1.611512410E0,3.453473747E-2,3.200852871E-2,-2.738122940E-1,2.778315431E-1
1.616511680E0,1.887924969E-2,4.554563761E-2,-2.453336716E-1,2.502387691E-1
1.621510899E0,1.740160584E-2,4.001733661E-2,-2.313423157E-1,2.354218982E-1
1.626662670E0,1.517817378E-3,5.579644442E-2,-2.008314133E-1,2.084437659E-1
1.631661889E0,1.903563738E-2,6.438443065E-2,-1.800775528E-1,1.921864600E-1
1.636661160E0,7.684701681E-2,4.232701659E-2,-1.191215515E-1,1.479425036E-1
1.641660378E0,6.043690443E-2,2.747401595E-2,-4.203796387E-2,7.857882269E-2
1.646659597E0,6.084413826E-2,1.036915183E-2,4.865741730E-2,7.859435558E-2
1.651658868E0,8.262766898E-2,-1.160249114E-2,9.822273254E-2,1.288784492E-1
1.656797878E0,9.948198497E-2,-2.443701029E-2,1.521444321E-1,1.834169049E-1
1.661797097E0,1.355138868E-1,-3.032135963E-2,2.151231766E-1,2.560495645E-1
1.666796368E0,1.055062264E-1,-3.145879507E-2,2.300558090E-1,2.550429275E-1
1.671795587E0,3.846119344E-2,-1.652508974E-3,1.783351898E-1,1.824429613E-1
1.676794805E0,4.173707962E-2,2.357149124E-2,7.712841034E-2,9.080963989E-2
1.681794076E0,5.753178895E-2,4.123657942E-3,2.424049377E-2,6.256606774E-2
1.686923555E0,4.536160827E-2,9.331196547E-3,1.689243317E-2,4.929605493E-2
1.691922774E0,4.583588243E-2,1.985499263E-2,3.570461273E-2,6.140006694E-2
1.696922045E0,1.852318645E-2,3.798624873E-2,8.520984650E-2,9.511457022E-2
1.701921264E0,3.224374354E-2,4.429039359E-2,1.200351715E-1,1.319459752E-1
1.706920483E0,2.457524836E-2,2.451375127E-2,1.213083267E-1,1.261767687E-1
1.711919753E0,1.444183290E-2,-2.380460501E-3,1.249551773E-1,1.258094967E-1
1.717059805E0,-2.918490767E-2,1.672297716E-3,1.737174988E-1,1.761599410E-1
1.722059024E0,-1.038946807E-1,2.807319164E-3,2.102241516E-1,2.345126428E-1
1.727058295E0,-1.193234622E-1,1.054656506E-2,2.060709000E-1,2.383579965E-1
1.732057514E0,-1.139678732E-1,-3.708830476E-2,1.972351074E-1,2.307940772E-1
1.737056733E0,-5.231969059E-2,-3.030768037E-2,2.170114517E-1,2.252773306E-1
1.742056003E0,-8.383348584E-3,-7.213592529E-3,2.033843994E-1,2.036848801E-1
1.747183139E0,2.554288507E-2,-2.757689357E-2,1.993904114E-1,2.029025879E-1
1.752182358E0,1.657117903E-2,-3.172561526E-2,1.978216171E-1,2.010336062E-1
1.757181628E0,-1.345025003E-2,-3.604519367E-2,1.558828354E-1,1.605603425E-1
1.762180847E0,-2.613013983E-2,-1.419606805E-2,5.964851379E-2,6.665026447E-2
1.767180066E0,-2.626529336E-2,-9.049266577E-3,-7.292747498E-3,2.872175181E-2
1.772179337E0,-3.290633857E-2,-8.177727461E-3,-6.420040131E-2,7.260436538E-2
1.777320535E0,-8.403956890E-4,5.277764797E-2,-1.277961731E-1,1.382680305E-1
1.782324441E0,4.089580476E-2,4.033622146E-2,-1.956443787E-1,2.039024289E-1
1.787328295E0,8.042648435E-2,3.610926867E-2,-2.178325653E-1,2.349964365E-1
1.792332149E0,1.057918966E-1,9.688353539E-2,-1.923589706E-1,2.399589932E-1
1.797336003E0,1.192896366E-1,6.976515055E-2,-7.209491730E-2,1.558681197E-1
1.802339858E0,1.138274819E-1,2.397090197E-2,8.517074585E-2,1.441712722E-1
1.807451733E0,7.283382118E-2,2.574941516E-2,1.746187210E-1,1.909436975E-1
1.812455639E0,2.737696469E-2,3.635028005E-2,1.992063522E-1,2.043379843E-1
1.817459493E0,3.420172632E-2,4.634311795E-2,1.547203064E-1,1.650933550E-1
1.822463347E0,4.757842422E-2,4.886710644E-2,1.320037842E-1,1.485822990E-1
1.827467201E0,-3.655210137E-3,5.813211203E-2,8.811378479E-2,1.056254803E-1
1.832471055E0,-1.707504690E-2,2.430117130E-2,5.173492432E-2,5.965405726E-2
1.837585118E0,-2.439901233E-3,5.230140686E-2,2.755260468E-2,5.916533024E-2
1.842589024E0,-2.273321152E-4,5.379027128E-2,-3.541946411E-3,5.390723837E-2
1.847592826E0,2.329798043E-2,4.323169589E-2,-1.299190521E-2,5.079926203E-2
1.852596733E0,7.275660336E-2,4.205688834E-2,4.653358459E-2,9.606081243E-2
1.857600587E0,8.844833076E-2,4.088816047E-2,4.855251312E-2,1.088682479E-1
1.862604441E0,6.636354327E-2,-5.665302277E-3,8.143806458E-2,1.052063396E-1
1.867745118E0,5.185322464E-2,1.238757372E-2,5.465412140E-2,7.634973395E-2
1.872749024E0,3.059019148E-2,-6.700456142E-4,3.046703339E-2,4.317926469E-2
1.877752878E0,7.232502103E-3,-3.990530968E-2,8.860588074E-3,4.151208075E-2
1.882756733E0,-2.063302696E-2,4.280298948E-3,-1.969051361E-2,2.884023382E-2
1.887760587E0,-1.511412859E-2,1.948848367E-2,-6.462860107E-2,6.917437355E-2
1.892764441E0,-3.128188848E-2,3.585308790E-3,-4.741954803E-2,5.692121329E-2
1.897871420E0,6.907835603E-3,3.983336687E-2,-2.558898926E-2,4.784570702E-2
1.902875274E0,3.011478484E-2,4.699599743E-2,-5.380821228E-2,7.752965722E-2
1.907879180E0,5.504257977E-2,7.051768899E-2,-6.989860535E-2,1.135264070E-1
1.912883035E0,1.079116315E-1,6.998172402E-2,-1.000976562E-1,1.629782277E-1
1.917886889E0,1.315385103E-1,5.983608961E-2,-1.537904739E-1,2.110313891E-1
1.922890743E0,1.501747966E-1,8.798614144E-2,-2.022905350E-1,2.668623075E-1
1.928008087E0,1.354746819E-1,1.161648929E-1,-2.527704239E-1,3.094197133E-1
1.933011941E0,1.235259026E-1,1.140932441E-1,-2.981119156E-1,3.422669005E-1
1.938015847E0,1.219596714E-1,8.193141222E-2,-3.169860840E-1,3.493810172E-1
1.943019701E0,8.776506782E-2,5.308893323E-2,-2.953529358E-1,3.126571583E-1
1.948023555E0,6.392675638E-2,5.846861005E-2,-2.478055954E-1,2.625125171E-1
1.953027410E0,5.041158199E-2,5.466234684E-2,-2.410631180E-1,2.522711371E-1
1.958125326E0,5.408105254E-2,5.366003513E-2,-1.940145493E-1,2.084365729E-1
1.963129180E0,6.259930134E-2,2.453663945E-2,-1.925077438E-1,2.039116246E-1
1.968133087E0,8.989506960E-2,3.851893544E-2,-1.933889389E-1,2.167120523E-1
1.973136941E0,8.112636209E-2,5.011039972E-2,-1.443748474E-1,1.730220661E-1
1.978140795E0,3.856603801E-2,-9.772211313E-3,-7.912540436E-2,8.856446814E-2
1.983144649E0,2.207720280E-2,-5.299237370E-2,9.359359741E-3,5.816521442E-2
1.988270014E0,-2.081458271E-2,-7.717610896E-2,7.812118530E-2,1.117690397E-1
1.993273920E0,-4.698206484E-2,-7.315173745E-2,1.178255081E-1,1.464286224E-1
1.998277774E0,-1.134811863E-1,-1.148589104E-1,1.358404160E-1,2.110051363E-1
2.003281628E0,-1.344013959E-1,-1.302904189E-1,1.062021255E-1,2.152166814E-1
2.008285483E0,-8.620528132E-2,-1.076363027E-1,6.018447876E-2,1.504629379E-1
2.013289337E0,-9.290488809E-2,-1.136705875E-1,9.796142578E-3,1.471335622E-1
2.018391576E0,-8.515162021E-2,-9.810774028E-2,2.031326294E-4,1.299075379E-1
2.023395483E0,-6.532236189E-2,-6.584677100E-2,-6.944656372E-3,9.301094810E-2
2.028399337E0,-6.187844276E-2,-8.120729029E-2,-2.829933167E-2,1.059453531E-1
2.033403191E0,-1.818434894E-2,-7.965485752E-2,4.072189331E-4,8.170515712E-2
2.038407045E0,-1.275971532E-2,-3.499358892E-2,5.106925964E-3,3.759577494E-2
2.043410899E0,-4.048123956E-2,-8.082057536E-2,2.574920654E-4,9.039226991E-2
2.048527305E0,-6.800960004E-2,-6.209474802E-2,9.702682495E-3,9.260240535E-2
2.053531212E0,-9.294892848E-2,-6.493501365E-2,3.807353973E-2,1.196062445E-1
2.058535066E0,-1.107688323E-1,-1.058588326E-1,3.533363342E-2,1.572396015E-1
2.063538920E0,-1.049452275E-1,-8.008067310E-2,3.262615204E-2,1.359811780E-1
2.068542774E0,-9.447249770E-2,-8.322969079E-2,6.083106995E-2,1.398308025E-1
2.073546628E0,-7.443293184E-2,-5.092434585E-2,6.029796600E-2,1.084868427E-1
2.078673972E0,-4.505375028E-2,-5.439624190E-2,3.363418579E-2,7.823074844E-2
2.083677878E0,-2.310390770E-2,-4.355476797E-2,2.382183075E-2,5.475662502E-2
2.088681733E0,-2.973540127E-2,-4.215322435E-2,4.259204865E-2,6.689671905E-2
2.093685587E0,-5.056343973E-2,-3.358581662E-2,1.131629944E-2,6.174728454E-2
2.098689441E0,-7.116778940E-2,-3.954903781E-2,3.969669342E-2,9.058039583E-2
2.103693295E0,-7.740356773E-2,-3.125831485E-2,5.596542358E-2,1.005013591E-1
2.108806316E0,-6.706257910E-2,-4.666534066E-2,2.221012115E-2,8.466600862E-2
2.113810222E0,-4.746198654E-2,-5.716335773E-2,1.249313354E-2,7.534167519E-2
2.118814076E0,-2.120867372E-2,-3.199255466E-2,1.474189758E-2,4.111757458E-2
2.123817930E0,-5.234082788E-2,-4.979202151E-2,1.143712997E-1,1.352760211E-1
2.128821785E0,-4.551107436E-2,-7.255902886E-2,1.799306870E-1,1.992764980E-1
2.133825639E0,-4.359748214E-2,-7.897067070E-2,2.283287048E-1,2.455017408E-1
2.138928764E0,-6.547360122E-2,-8.580091596E-2,2.597084045E-1,2.812419688E-1
2.143932670E0,-9.185312688E-2,-9.535528719E-2,2.148189545E-1,2.523426458E-1
2.148936524E0,-1.178102642E-1,-8.127930760E-2,1.489276886E-1,2.065551758E-1
2.153940378E0,-1.220248193E-1,-8.389241993E-2,1.002101898E-1,1.788017807E-1
2.158944233E0,-1.212030947E-1,-7.212176919E-2,4.476451874E-2,1.479716253E-1
2.163948087E0,-9.849484265E-2,-4.836177826E-2,3.014945984E-2,1.137940488E-1
2.169063087E0,-3.775137663E-2,-2.718690038E-2,1.802825928E-2,4.989300675E-2
2.174066993E0,-2.229981124E-2,-6.019085646E-3,-3.913593292E-2,4.544372585E-2
2.179070847E0,-9.192764759E-3,1.522871852E-2,-6.257820129E-2,6.505729835E-2
2.184074701E0,2.735765278E-2,3.185653687E-2,-1.214628220E-1,1.285165251E-1
2.189078555E0,7.032309473E-2,5.567535758E-2,-1.632261276E-1,1.862467499E-1
2.194082410E0,1.194978207E-1,7.923796773E-2,-1.357412338E-1,1.974438332E-1
2.199197983E0,1.059803218E-1,6.702220440E-2,-6.334304810E-2,1.404853951E-1
2.204201889E0,7.090659440E-2,8.076876402E-2,-1.529026031E-2,1.085593406E-1
2.209205743E0,-3.999552131E-2,2.292743325E-2,-1.276588440E-2,4.783593549E-2
2.214209597E0,-1.118657440E-1,-1.785236597E-2,-5.302143097E-2,1.250756723E-1
2.219213451E0,-1.068226248E-1,-5.575358868E-2,-5.969429016E-2,1.344728378E-1
2.224217305E0,-7.781625539E-2,-1.938146353E-2,-7.107543945E-2,1.071574954E-1
2.229333608E0,-6.527484208E-2,7.302761078E-3,-7.999706268E-2,1.035068373E-1
2.234337514E0,-2.650029957E-2,1.516577601E-2,-2.947044373E-2,4.243552395E-2
2.239341368E0,1.923008263E-2,3.960609436E-3,-1.500034332E-2,2.470815260E-2
2.244345222E0,3.638646007E-2,1.443397999E-2,4.087448120E-3,3.935761027E-2
2.249349076E0,8.908766508E-2,-8.542716503E-3,3.727436066E-2,9.694827506E-2
2.254352930E0,1.316952556E-1,1.132658124E-2,3.930664062E-2,1.379019354E-1
2.259467618E0,1.074502766E-1,-4.839897156E-5,1.125936508E-1,1.556370601E-1
2.264471524E0,6.191819906E-2,-3.520464897E-2,1.472663879E-1,1.635867345E-1
2.269475378E0,-6.994158030E-3,-6.113271415E-2,1.864175797E-1,1.963100634E-1
2.274479233E0,-5.173362792E-2,-7.780778408E-2,1.872501373E-1,2.092678510E-1
2.279483087E0,-6.052769721E-2,-6.376755238E-2,1.239452362E-1,1.519615887E-1
2.284486941E0,-6.212622672E-2,-7.855555415E-2,1.063089371E-1,1.460555827E-1
2.289603764E0,-5.895718932E-2,-5.750375986E-2,4.843330383E-2,9.554275216E-2
2.294611368E0,-3.697022051E-2,-5.080869794E-2,-1.608562469E-2,6.486191727E-2
2.299618920E0,-3.288790584E-3,-2.965702116E-2,-4.444026947E-2,5.352842795E-2
2.304626472E0,4.183948040E-3,-2.050489187E-2,-6.068706512E-2,6.419404868E-2
2.309634024E0,1.938194036E-3,6.033778191E-4,-7.205009460E-2,7.207868474E-2
2.314641628E0,1.934126019E-3,-1.141244173E-2,-1.023273468E-1,1.029799523E-1
2.319743972E0,3.993743658E-2,2.655646205E-2,-1.157236099E-1,1.252685053E-1
2.324751524E0,4.179082811E-2,7.453531027E-3,-1.266365051E-1,1.335620937E-1
2.329759128E0,4.121030867E-2,2.672061324E-2,-6.857490540E-2,8.434926415E-2
2.334766680E0,2.643027902E-2,3.389927745E-2,-3.237533569E-2,5.381340931E-2
2.339774233E0,9.451165795E-3,3.156691790E-2,-2.736186981E-2,4.283067546E-2
2.344781837E0,2.112296224E-2,3.875443339E-2,-3.901863098E-2,5.891128249E-2
2.349874389E0,-7.795706391E-3,5.079758167E-2,-6.245994568E-2,8.088517884E-2
2.354881941E0,-7.968872786E-3,3.650105000E-2,-7.857513428E-2,8.700506486E-2
2.359889545E0,-3.383591771E-3,4.168713093E-2,-1.278238297E-1,1.344923678E-1
2.364897097E0,-1.086813211E-2,3.753414750E-2,-9.827327728E-2,1.057571064E-1
2.369904649E0,-6.362244487E-3,3.579202294E-2,-1.195716858E-2,3.826905985E-2
2.374912253E0,-1.139171422E-2,7.879137993E-3,3.325843811E-2,3.602742946E-2
2.380001733E0,1.372843981E-4,-2.728076279E-2,5.672836304E-2,6.294732749E-2
2.385009285E0,3.289952874E-2,-3.158168495E-2,1.037693024E-1,1.133483565E-1
2.390016889E0,4.628078640E-2,9.081214666E-3,9.578704834E-2,1.067686203E-1
2.395024441E0,4.524983466E-2,-5.338311195E-3,1.258840561E-1,1.338762140E-1
2.400031993E0,3.473253548E-2,-2.940329909E-2,1.011009216E-1,1.108706425E-1
2.405039597E0,-1.779183745E-3,-3.204165399E-2,8.603000641E-2,9.182045027E-2
2.410143451E0,-1.889103651E-2,-6.100825965E-2,9.246826172E-2,1.123799734E-1
2.415151003E0,-4.718571901E-3,-6.110434234E-2,6.558799744E-2,8.976519917E-2
2.420158608E0,-1.892028749E-2,-2.323758602E-2,1.517295837E-2,3.358841093E-2
2.425166160E0,-6.610691547E-3,-1.636284590E-2,8.001327515E-4,1.766590448E-2
2.430173712E0,2.217178047E-2,2.159658074E-2,-5.859279633E-2,6.626549577E-2
2.435181316E0,3.171302378E-2,9.455293417E-3,-5.098056793E-2,6.077941064E-2
2.440271108E0,-1.108041406E-2,9.395062923E-3,-4.818439484E-2,5.032671943E-2
2.445278660E0,-4.170098901E-2,3.066658974E-2,-5.491065979E-2,7.546252559E-2
2.450286264E0,-5.094861239E-2,1.855692267E-2,-4.732608795E-2,7.197137684E-2
2.455293816E0,-6.275524944E-2,9.079992771E-3,-4.217910767E-2,7.615605507E-2
2.460301368E0,-5.339602381E-2,3.743246198E-2,-4.419040680E-2,7.877256262E-2
2.465308972E0,-1.823706925E-2,5.604296923E-2,-6.518459320E-2,8.787739348E-2
2.470406212E0,1.397174597E-2,4.351040721E-2,-8.124446869E-2,9.321496078E-2
2.475413764E0,2.920246124E-2,7.399982214E-2,-8.054447174E-2,1.132085215E-1
2.480421368E0,4.668480158E-2,6.405648589E-2,-8.935832977E-2,1.194471230E-1
2.485428920E0,6.655693054E-2,4.241925478E-2,-9.572887421E-2,1.240694787E-1
2.490436472E0,9.360325336E-2,1.393562555E-2,-2.841091156E-2,9.880764442E-2
2.495444076E0,9.930630028E-2,7.015496492E-3,3.834342957E-2,1.066825996E-1
2.500540535E0,5.976396799E-2,-1.895195246E-2,7.366371155E-2,9.673288361E-2
2.505548087E0,6.462618709E-3,-4.501581192E-2,1.276988983E-1,1.355551452E-1
2.510555691E0,-6.013423204E-3,-5.702181160E-2,1.337862015E-1,1.455554738E-1
2.515563295E0,-1.363743842E-2,-4.780513048E-2,1.303272247E-1,1.394865432E-1
2.520570795E0,-2.589872479E-2,-6.030327082E-2,1.126499176E-1,1.303734342E-1
2.525578399E0,-9.505540133E-3,-2.296277881E-2,9.512424469E-2,9.831717262E-2
2.530688243E0,1.727804542E-3,9.343385696E-3,3.023910522E-2,3.169680819E-2
2.535695795E0,1.763752103E-2,5.322620273E-2,-6.023693085E-2,8.229579967E-2
2.540703399E0,3.336736560E-2,4.948890209E-2,-1.238336563E-1,1.374674760E-1
2.545710951E0,3.471753001E-2,6.271958351E-2,-1.512775421E-1,1.674035477E-1
2.550718503E0,1.710559428E-2,9.035134315E-2,-1.689977646E-1,1.923959745E-1
2.555726108E0,-1.440697908E-2,7.292947173E-2,-1.533260345E-1,1.703970122E-1
2.560809962E0,-3.109556437E-2,7.745268941E-2,-1.401777267E-1,1.631430302E-1
2.565817514E0,-2.373312414E-2,4.666286707E-2,-1.865406036E-1,1.937474675E-1
2.570825118E0,-1.405651867E-2,7.102581859E-2,-2.206487656E-1,2.322243105E-1
2.575832670E0,7.267877460E-3,8.604189754E-2,-2.212228775E-1,2.374775604E-1
2.580840222E0,3.776596487E-2,8.703875542E-2,-2.289266586E-1,2.478092575E-1
2.585847826E0,4.173128307E-2,8.600872755E-2,-1.771850586E-1,2.013294469E-1
2.590943712E0,2.169682086E-2,4.215341806E-2,-1.377449036E-1,1.456753965E-1
2.595951264E0,-2.201630175E-2,5.650788546E-3,-6.299400330E-2,6.696934676E-2
2.600958868E0,-2.751491964E-2,-2.109542489E-2,-2.211856842E-2,4.112564678E-2
2.605966420E0,2.182173729E-2,-2.644398808E-2,5.642795563E-2,6.602716790E-2
2.610973972E0,1.171931624E-2,-4.615537822E-2,1.438198090E-1,1.514985108E-1
2.615981576E0,2.113372087E-3,-7.541048527E-2,1.900968552E-1,2.045190015E-1
2.621076055E0,-2.356915176E-2,-8.798082173E-2,2.193565369E-1,2.375150946E-1
2.626083608E0,-6.511650234E-2,-9.823587537E-2,2.269859314E-1,2.557597684E-1
2.631091212E0,-9.398381412E-2,-1.061780900E-1,2.345485687E-1,2.740798701E-1
2.636098764E0,-6.766930968E-2,-1.260821521E-1,2.372941971E-1,2.770999468E-1
2.641106316E0,-6.982676685E-2,-7.702945173E-2,2.186365128E-1,2.420975806E-1
2.646113920E0,-5.068956316E-2,-4.511788487E-2,1.668825150E-1,1.801522388E-1
2.651237983E0,-4.153996706E-2,-2.787555754E-2,1.559543610E-1,1.637814955E-1
2.656245587E0,-1.390743256E-2,8.843243122E-4,1.617593765E-1,1.623585372E-1
2.661253139E0,-2.508090436E-2,5.388140678E-3,1.342773438E-1,1.367058480E-1
2.666260691E0,-1.059627533E-2,9.644359350E-3,1.236667633E-1,1.244940282E-1
2.671268295E0,-8.572354913E-3,1.840594411E-2,1.202859879E-1,1.219876343E-1
2.676275847E0,-9.348571301E-3,3.127098083E-3,1.074447632E-1,1.078960225E-1
2.681348503E0,1.563674212E-2,2.597084641E-2,5.908489227E-2,6.640795933E-2
2.686356055E0,-2.144096792E-2,2.472645044E-2,6.339550018E-2,7.134495007E-2
2.691363660E0,-4.617646337E-2,-7.389634848E-3,3.916072845E-2,6.099536970E-2
2.696371212E0,-2.547119558E-2,-1.041775942E-2,-6.262779236E-3,2.822293251E-2
2.701378764E0,-4.473179579E-3,-3.658294678E-3,-5.369758606E-2,5.400762172E-2
2.706386368E0,-2.346247435E-2,5.782395601E-3,-6.987571716E-2,7.393605109E-2
2.711478243E0,-8.510634303E-3,8.544445038E-3,-7.168960571E-2,7.269689130E-2
2.716485795E0,-1.466254890E-2,2.821987867E-2,-9.250831604E-2,9.782198336E-2
2.721493399E0,-4.421041906E-2,2.186146379E-2,-3.952598572E-2,6.320433766E-2
2.726500951E0,-5.430046469E-2,-2.709999681E-2,5.882263184E-3,6.097172552E-2
2.731508503E0,-4.758243263E-2,-2.111428976E-2,4.378700256E-2,6.802354534E-2
2.736516108E0,-2.450311184E-2,-3.216743469E-2,9.801864624E-2,1.060320770E-1
2.741617045E0,-4.693525285E-2,-2.907626331E-2,1.185493469E-1,1.307757420E-1
2.746624649E0,-2.432486415E-2,-2.178652585E-2,1.246757507E-1,1.288813196E-1
2.751632201E0,-2.591606975E-2,-1.022222638E-2,1.426448822E-1,1.453399429E-1
2.756639753E0,-1.840674877E-2,-2.292470634E-2,1.177225113E-1,1.213381235E-1
2.761647358E0,1.455128193E-2,-7.379829884E-3,6.214618683E-2,6.425223912E-2
2.766654910E0,3.236176074E-2,1.252543926E-2,9.427070618E-3,3.595886326E-2
2.771763347E0,1.653735340E-2,2.721548080E-2,-3.808879852E-2,4.964799115E-2
2.776770899E0,-1.358580589E-2,1.114219427E-2,-5.908107758E-2,6.163843235E-2
2.781778503E0,1.785412431E-3,-1.868996024E-2,-8.703613281E-2,8.903814197E-2
2.786786055E0,1.506514847E-2,-2.928942442E-3,-1.218986511E-1,1.228609724E-1
2.791793608E0,1.211975515E-2,2.737167478E-2,-1.184825897E-1,1.222056509E-1
2.796801212E0,1.699820161E-2,4.621717334E-2,-1.673870087E-1,1.744803044E-1
2.801883920E0,2.928024530E-2,4.648211598E-2,-2.016534805E-1,2.090025026E-1
2.806894441E0,4.672184587E-2,3.062540293E-2,-2.214040756E-1,2.283431866E-1
2.811905014E0,5.730906129E-2,4.413124919E-2,-2.148866653E-1,2.267337086E-1
2.816915535E0,3.713175654E-2,4.585480690E-2,-1.680488586E-1,1.781062872E-1
2.821926055E0,1.944893599E-2,2.169018984E-2,-1.382350922E-1,1.412716042E-1
2.826936576E0,1.347853243E-2,7.229745388E-3,-6.827926636E-2,6.997141037E-2
2.832024337E0,7.152795792E-3,-2.636104822E-3,3.482818604E-3,8.381023905E-3
2.837034858E0,4.997834563E-3,-2.247342467E-2,5.566883087E-2,6.024161267E-2
2.842045430E0,1.427479088E-2,-2.144116163E-2,1.098222733E-1,1.128025920E-1
2.847055951E0,5.146661401E-2,-9.164512157E-3,1.397953033E-1,1.492498827E-1
2.852066472E0,7.853800058E-2,-6.960690022E-3,1.030206680E-1,1.297302077E-1
2.857076993E0,1.123084724E-1,2.036541700E-3,5.468654633E-2,1.249318167E-1
2.862149493E0,9.806607664E-2,3.769785166E-3,3.764343262E-2,1.051103929E-1
2.867160014E0,5.565938354E-2,-1.113176346E-2,6.485939026E-3,5.713099455E-2
2.872170587E0,2.801910043E-2,-2.570465207E-2,-2.441978455E-2,4.518987723E-2
2.877181108E0,8.642524481E-4,-3.059935570E-2,-4.377365112E-4,3.061468789E-2
2.882191628E0,-1.135279238E-2,-3.518833220E-2,1.145267487E-2,3.870747188E-2
2.887202149E0,-1.577524841E-2,-6.808711588E-2,1.610279083E-2,7.172177971E-2
2.892286889E0,-7.922649384E-3,-7.927061617E-2,2.783203125E-2,8.438732681E-2
2.897297410E0,2.851648629E-2,-5.720803142E-2,4.421424866E-2,7.772289645E-2
2.902307983E0,7.167907059E-2,-3.047734499E-2,8.197784424E-3,7.831961049E-2
2.907318503E0,8.587320149E-2,7.288753986E-4,-2.513885498E-2,8.948016553E-2
2.912329024E0,1.209223568E-1,1.261320710E-2,-6.769275665E-2,1.391532202E-1
2.917339545E0,1.031147540E-1,5.073112249E-2,-9.563732147E-2,1.495085166E-1
2.922418920E0,6.381762028E-2,9.106269479E-2,-1.352262497E-1,1.750749601E-1
2.927429441E0,3.637418151E-2,9.314423800E-2,-1.602277756E-1,1.888699823E-1
2.932440014E0,1.775160432E-3,6.701189280E-2,-1.707725525E-1,1.834584685E-1
2.937522930E0,-3.962728381E-2,7.948684692E-2,-1.646108627E-1,1.870433548E-1
2.942531576E0,-4.725702107E-2,5.651849508E-2,-1.228780746E-1,1.432710283E-1
2.947553972E0,2.339094877E-3,5.771142244E-2,-6.962394714E-2,9.046310663E-2
2.952572097E0,4.172846675E-3,3.069385886E-2,-2.571105957E-3,3.108273165E-2
2.957582566E0,-3.630414605E-2,3.848522902E-3,7.341861725E-2,8.199448462E-2
2.962638868E0,-4.504372180E-2,9.506642818E-4,1.487655640E-1,1.554381988E-1
2.967649337E0,-1.094147563E-3,-4.519745708E-3,1.759738922E-1,1.760353260E-1
2.972659910E0,-2.134595811E-2,-4.340416193E-2,2.100820541E-1,2.155783864E-1
2.977670430E0,-4.333913326E-2,-3.951467574E-2,2.201499939E-1,2.278282465E-1
2.982680951E0,-5.560002476E-2,-4.303941131E-2,2.087602615E-1,2.202830009E-1
2.987691472E0,-9.405151010E-2,-4.436182976E-2,1.309585571E-1,1.672238086E-1
2.992722514E0,-9.195372462E-2,-5.310571194E-2,9.895229340E-2,1.451456526E-1
2.997733035E0,-8.549586684E-2,-1.927436888E-2,8.385372162E-2,1.212950583E-1
3.002743555E0,-6.752271205E-2,-2.864219248E-2,1.021490097E-1,1.257541730E-1
3.007754076E0,-4.768560082E-2,-1.433317363E-2,7.754325867E-2,9.215374847E-2
3.012764597E0,-2.595216036E-2,-2.648007870E-2,6.978034973E-2,7.901902558E-2
3.017775118E0,-1.663553715E-2,-3.171409667E-2,9.060382843E-2,9.742473377E-2
3.022886680E0,-2.218063176E-2,1.517972350E-2,7.801055908E-2,8.251091903E-2
3.027897201E0,2.424003184E-2,3.308802843E-2,7.740688324E-2,8.760263890E-2
3.032907774E0,2.715475857E-2,1.510740817E-2,6.018924713E-2,6.773743548E-2
3.037964597E0,1.087395847E-2,1.146376133E-2,9.538269043E-2,9.668256529E-2
3.042980222E0,-2.188798785E-2,-1.536786556E-3,1.160259247E-1,1.180824327E-1
3.047990691E0,-4.244832695E-2,-1.685358584E-2,1.103677750E-1,1.194443367E-1
3.053012774E0,-3.413228691E-2,2.713876963E-2,7.150077820E-2,8.374895288E-2
3.058023347E0,-6.618231535E-3,2.583983541E-2,5.195140839E-2,5.839903180E-2
3.063033868E0,3.776386380E-2,3.663611412E-2,5.393218994E-2,7.534583850E-2
3.068044389E0,6.804481149E-2,4.987174273E-2,5.825710297E-2,1.025240320E-1
3.073054910E0,8.661247790E-2,2.292346954E-2,4.590320587E-2,1.006693155E-1
3.078065430E0,6.242564321E-2,2.237966657E-2,7.165622711E-2,9.763413998E-2
3.083154076E0,3.189842403E-2,2.777814865E-3,3.542041779E-2,4.774758326E-2
3.088164597E0,3.987768292E-2,-1.200522482E-2,5.412197113E-2,6.829013675E-2
3.093175170E0,4.324720800E-2,-5.492955446E-3,4.416275024E-2,6.205515344E-2
3.098185691E0,2.299188077E-2,1.748800278E-2,3.903770447E-2,4.856335236E-2
3.103196212E0,1.943312585E-2,7.018029690E-3,3.870868683E-2,4.387780256E-2
3.108206733E0,-3.899574280E-2,-3.687998652E-2,2.176570892E-2,5.791845515E-2
3.113280587E0,-7.094895095E-2,-3.534413874E-2,-2.828884125E-2,8.416186977E-2
3.118291108E0,-7.202998549E-2,-1.010045409E-2,-3.516006470E-2,8.078717802E-2
3.123301628E0,-6.861344725E-2,-1.599916816E-2,-6.097316742E-2,9.317459777E-2
3.128312149E0,-4.870331287E-2,1.404595375E-2,-6.994628906E-2,8.638162337E-2
3.133322670E0,-1.718387008E-2,3.919261694E-2,-1.049766541E-1,1.133642118E-1
3.138333191E0,-1.215903461E-2,2.395153046E-2,-1.278419495E-1,1.306333877E-1
3.143412722E0,-2.131786942E-2,6.818532944E-3,-1.006412506E-1,1.030999771E-1
3.148423191E0,-1.615332067E-2,-1.222971082E-2,-9.743213654E-2,9.951641485E-2
3.153433764E0,-1.552335918E-2,1.179620624E-2,-4.912185669E-2,5.284961652E-2
3.158444285E0,-2.641443908E-2,-1.178413630E-2,-5.975723267E-3,2.953468688E-2
3.163454805E0,-8.558288217E-3,-4.487411678E-2,3.443908691E-2,5.720997606E-2
3.168465326E0,-9.855195880E-3,-3.477296233E-2,1.037311554E-2,3.760166647E-2
3.173543816E0,-1.112762094E-2,-3.905878961E-2,1.263999939E-2,4.253448693E-2
3.178554337E0,-4.344508797E-2,-2.451191843E-2,7.770538330E-3,5.048456278E-2
3.183564858E0,-1.873847842E-2,-4.117679596E-2,5.327224731E-3,4.555258963E-2
3.188575378E0,5.606517196E-3,-2.702850103E-2,5.287170410E-3,2.810564132E-2
3.193585899E0,8.161172271E-3,-1.816448569E-2,5.111694336E-4,1.992020501E-2
3.198596420E0,2.469103038E-2,-1.185542345E-2,-3.272342682E-2,4.267341924E-2
3.203695378E0,8.115558326E-2,-5.672425032E-3,-4.904556274E-2,9.499406468E-2
3.208705899E0,9.419259429E-2,-2.576017380E-2,-3.909492493E-2,1.051867127E-1
3.213716472E0,6.901288033E-2,-1.464548707E-2,-2.922821045E-2,7.636462681E-2
3.218726993E0,5.354666710E-2,-3.728181124E-3,-9.940147400E-3,5.458893132E-2
3.223737514E0,5.741842091E-2,-3.075294197E-2,6.805419922E-3,6.548993999E-2
3.228748035E0,3.771018982E-2,-4.572676122E-2,-5.098342896E-3,5.948939576E-2
3.233833972E0,3.510473669E-2,-3.656986356E-2,-3.354263306E-2,6.078491335E-2
3.238844493E0,3.530465066E-2,-1.528578997E-2,-7.126903534E-2,8.098980881E-2
3.243855066E0,4.279100895E-2,-2.005404234E-2,-8.018398285E-2,9.307365990E-2
3.248865587E0,4.804846644E-2,-5.467802286E-3,-5.578041077E-2,7.382415739E-2
3.253876108E0,6.296885014E-2,-5.202651024E-3,-4.346179962E-2,7.668814570E-2
3.258886628E0,6.609909236E-2,-4.838615656E-3,-6.451129913E-2,9.248897193E-2
3.263953868E0,4.081763327E-2,2.170857787E-2,-6.400871277E-2,7.895857679E-2
3.268964389E0,2.765922248E-2,8.317530155E-4,-8.014774323E-2,8.479024204E-2
3.273974910E0,-6.866022944E-3,-2.230286598E-2,-8.902359009E-2,9.203129736E-2
3.278985430E0,-2.927790582E-2,-7.339805365E-3,-5.030918121E-2,5.866926134E-2
3.283995951E0,-2.067731321E-2,-3.303855658E-2,9.468078613E-3,4.010912633E-2
3.289006472E0,-4.329122603E-2,2.982407808E-3,-4.883766174E-3,4.366779339E-2
3.294085222E0,-8.487282693E-2,-2.083712816E-2,-2.861022949E-2,9.195720686E-2
3.299095743E0,-1.073206961E-1,-3.041270375E-2,-4.025173187E-2,1.185869566E-1
3.304106264E0,-7.282942533E-2,-2.823744714E-2,-3.040695190E-2,8.382160425E-2
3.309116785E0,-6.976836175E-2,-4.978294671E-2,-5.152416229E-2,1.000035269E-1
3.314127305E0,-6.688842922E-2,-4.506981373E-2,-3.682708740E-2,8.866557641E-2
3.319137826E0,-4.007396847E-2,-2.624398470E-2,-1.987838745E-2,5.186347433E-2
3.324226160E0,-1.802429557E-2,-2.669161558E-2,-3.395271301E-2,4.679855013E-2
3.329236680E0,-1.253584027E-2,-4.586863518E-2,-5.742263794E-2,7.455493500E-2
3.334247201E0,-1.411314309E-2,-2.889136970E-2,-8.783721924E-2,9.353752795E-2
3.339257722E0,5.909904838E-3,-1.866361499E-2,-1.061372757E-1,1.079276554E-1
3.344268243E0,-1.446397603E-2,-2.721352875E-2,-8.628749847E-2,9.162595234E-2
3.349278764E0,-3.693994135E-2,-4.731066525E-2,-4.285526276E-2,7.375250409E-2
3.354354128E0,-4.971437901E-2,-3.386256099E-2,-1.166629791E-2,6.127230226E-2
3.359364649E0,3.805264831E-3,-2.291633189E-2,7.390975952E-3,2.437754773E-2
3.364375222E0,1.623839140E-2,-5.012334883E-2,3.104591370E-2,6.115459272E-2
3.369385743E0,5.661612749E-2,1.128911972E-3,9.965038300E-2,1.146161383E-1
3.374396264E0,7.502382994E-2,-1.022779942E-2,1.439428329E-1,1.626429282E-1
3.379406785E0,2.165314555E-2,-2.190709114E-2,1.760053635E-1,1.786803496E-1
3.384478764E0,-4.600598663E-2,-1.970620453E-2,1.911916733E-1,1.976338565E-1
3.389489285E0,-5.855894089E-2,-5.361782014E-2,1.991386414E-1,2.143833451E-1
3.394499858E0,-7.782974094E-2,-7.794842124E-2,1.595087051E-1,1.938464649E-1
3.399510378E0,-8.010650426E-2,-4.738555849E-2,1.392087936E-1,1.674560581E-1
3.404520899E0,-7.023417205E-2,-5.740574002E-2,1.262006760E-1,1.554183661E-1
3.409531420E0,-4.805582762E-2,-6.026312709E-2,6.103134155E-2,9.831496176E-2
3.414619180E0,-2.099743485E-2,-3.687204421E-2,4.866027832E-2,6.456208330E-2
3.419629701E0,-3.312736750E-3,-3.478232026E-2,3.122329712E-3,3.507895338E-2
3.424640274E0,2.414201200E-2,2.203106880E-2,-1.116466522E-2,3.453772554E-2
3.429650795E0,5.875831842E-2,3.576457500E-2,-3.484058380E-2,7.710714032E-2
3.434661316E0,6.251978874E-2,4.716151953E-2,-1.794433594E-2,8.034259207E-2
3.439671837E0,8.556276560E-2,2.309134603E-2,-4.633522034E-2,1.000057486E-1
3.444756680E0,3.480726480E-2,1.848903298E-2,-1.101312637E-1,1.169713011E-1
3.449767201E0,-1.251369715E-3,1.412680745E-2,-1.520195007E-1,1.526796031E-1
3.454777774E0,-3.959711641E-2,4.045367241E-4,-1.317949295E-1,1.376154015E-1
3.459788295E0,-3.522846848E-2,-1.325190067E-3,-8.560276031E-2,9.257771705E-2
3.464798816E0,-2.647876740E-3,1.585915685E-2,-3.503704071E-2,3.855020530E-2
3.469809337E0,5.770352483E-2,4.689258337E-2,-3.951740265E-2,8.420354069E-2
3.474885899E0,5.765450001E-2,5.132782459E-2,-1.781558990E-2,7.922109689E-2
3.479896420E0,5.956636369E-2,5.287986994E-2,-4.141139984E-2,8.977380668E-2
3.484906993E0,6.337371469E-2,7.791358232E-2,-7.905101776E-2,1.278116483E-1
3.489917514E0,4.060773551E-2,5.754956603E-2,-1.258726120E-1,1.442388824E-1
3.494928035E0,4.142668843E-2,7.778987288E-2,-1.722993851E-1,1.935316846E-1
3.499938555E0,5.623580515E-2,1.004431248E-1,-1.898345947E-1,2.220100458E-1
3.505023139E0,4.239648581E-2,7.095330954E-2,-1.787242889E-1,1.969116695E-1
3.510033660E0,4.780538380E-2,5.157491565E-2,-1.344623566E-1,1.517413984E-1
3.515044233E0,7.010912895E-2,5.890354514E-2,-1.167163849E-1,1.483496953E-1
3.520054753E0,3.314681351E-2,9.315103292E-3,-5.636596680E-2,6.605001596E-2
3.525065274E0,1.833596826E-2,-1.109305024E-2,1.091957092E-3,2.145823538E-2
3.530075795E0,2.089211345E-2,-2.647258341E-2,6.043338776E-2,6.920601442E-2
3.535159180E0,4.063184559E-2,-1.309153438E-2,7.650947571E-2,8.761298432E-2
3.540169701E0,4.155413806E-2,-2.829566598E-2,1.304540634E-1,1.398057716E-1
3.545180274E0,4.050675035E-2,-1.750050485E-2,1.530694962E-1,1.593026527E-1
3.550190795E0,1.766636968E-3,-2.125363052E-2,1.659946442E-1,1.673590742E-1
3.555201316E0,-3.417245299E-2,-5.616784096E-2,1.099290848E-1,1.280897599E-1
3.560211837E0,-7.952976227E-2,-1.724889874E-2,6.621646881E-2,1.049148623E-1
3.565280483E0,-9.165653586E-2,-1.675927639E-2,-3.255844116E-3,9.323301150E-2
3.570293347E0,-1.183161959E-1,1.925224066E-2,-5.788612366E-2,1.331171450E-1
3.575306212E0,-1.429026723E-1,2.614837885E-2,-1.262998581E-1,1.925008198E-1
3.580319076E0,-1.348078847E-1,2.111053467E-2,-1.822557449E-1,2.276751568E-1
3.585331941E0,-1.298360676E-1,5.407407880E-2,-1.997261047E-1,2.442783808E-1
3.590344805E0,-1.089567319E-1,5.113264918E-2,-1.980381012E-1,2.317438387E-1
3.595415743E0,-8.885227144E-2,5.064538121E-2,-1.844797134E-1,2.109323243E-1
3.600428608E0,-6.450057030E-2,7.639712095E-2,-1.591539383E-1,1.879543022E-1
3.605441472E0,-1.468583196E-2,1.186664402E-1,-1.174058914E-1,1.675754786E-1
3.610454337E0,5.825909972E-2,1.461768448E-1,-5.461978912E-2,1.665686466E-1
3.615467201E0,1.256894916E-1,1.972659528E-1,-6.608009338E-3,2.339986544E-1
3.620480066E0,1.733545959E-1,2.074378431E-1,1.250553131E-2,2.706264270E-1
3.625549441E0,1.873289645E-1,2.223787010E-1,3.858661652E-2,2.933144295E-1
3.630562305E0,1.991100758E-1,2.229421437E-1,9.295368195E-2,3.130310028E-1
3.635575170E0,2.181783319E-1,2.235535383E-1,1.088552475E-1,3.307981770E-1
3.640654649E0,1.995036751E-1,1.862626970E-1,1.103620529E-1,2.944066769E-1
3.645673972E0,1.911401302E-1,1.969993711E-1,1.403455734E-1,3.082858763E-1
3.650700222E0,1.953418255E-1,1.984593868E-1,1.843137741E-1,3.339403005E-1
3.655735743E0,1.979027539E-1,2.026550472E-1,2.160139084E-1,3.562254578E-1
3.660731628E0,2.082422227E-1,2.280342877E-1,1.642990112E-1,3.497979771E-1
3.665744441E0,1.831694543E-1,2.201066315E-1,1.438865662E-1,3.204704700E-1
3.670757305E0,2.014269680E-1,2.409604192E-1,1.378841400E-1,3.429967684E-1
3.675770170E0,2.219122648E-1,2.380382121E-1,1.081724167E-1,3.429409795E-1
3.680783035E0,2.326787710E-1,2.684983015E-1,1.523485184E-1,3.865757616E-1
3.685795899E0,2.459476143E-1,2.865619659E-1,2.412939072E-1,4.481414274E-1
3.690808764E0,1.854611933E-1,2.373914123E-1,2.891302109E-1,4.175485788E-1
3.695870118E0,1.086510271E-1,2.022609711E-1,2.486963272E-1,3.384736463E-1
3.700882983E0,2.715107799E-2,1.859592199E-1,1.848669052E-1,2.636167391E-1
3.705895847E0,7.520943880E-3,2.216924429E-1,1.310939789E-1,2.576620561E-1
3.710908712E0,-5.498126149E-3,2.329590023E-1,9.442234039E-2,2.514273344E-1
3.715921576E0,2.298071980E-3,2.486731708E-1,5.095005035E-2,2.538494330E-1
3.720934441E0,2.841560543E-2,2.732872367E-1,1.736927032E-2,2.753090117E-1
3.726005066E0,2.985364199E-2,2.879602313E-1,-4.204082489E-2,2.925401950E-1
3.731017930E0,2.276301384E-4,3.169941008E-1,-1.033315659E-1,3.334107441E-1
3.736030795E0,-7.825627923E-3,3.151135445E-1,-1.997499466E-1,3.731726511E-1
3.741081785E0,-1.012009680E-1,2.969758809E-1,-2.264852524E-1,3.869520375E-1
3.746118347E0,-1.127650142E-1,2.320600152E-1,-2.031354904E-1,3.283775671E-1
3.751131212E0,-3.328548372E-2,2.583822012E-1,-1.348733902E-1,2.933600462E-1
3.756148035E0,-3.451457620E-2,2.350167632E-1,-8.621215820E-2,2.526987756E-1
3.761206055E0,-1.832985878E-2,2.359161675E-1,-3.323268890E-2,2.389494370E-1
3.766218920E0,2.690580487E-2,2.298859060E-1,-7.098579407E-2,2.420959212E-1
3.771231785E0,-4.256471992E-3,1.573931277E-1,-5.853843689E-2,1.679805429E-1
3.776244649E0,-2.777133882E-2,1.352338195E-1,7.970905304E-2,1.594144483E-1
3.781257514E0,-6.772439182E-2,1.605136395E-1,6.002712250E-2,1.842674066E-1
3.786270378E0,-6.494851410E-2,1.448870301E-1,3.340053558E-2,1.622533721E-1
3.791283243E0,-2.455441654E-2,1.245897710E-1,-1.199817657E-2,1.275518979E-1
3.796314389E0,2.701912820E-2,1.662221551E-1,-7.364082336E-2,1.838010038E-1
3.801327253E0,5.849383771E-2,1.247234344E-1,-1.300153732E-1,1.894240255E-1
3.806340118E0,1.035012901E-1,1.527674198E-1,-1.027774811E-1,2.112193462E-1
3.811352983E0,9.324936569E-2,1.735993922E-1,-1.400184631E-2,1.975556754E-1
3.816365847E0,7.369339466E-2,1.372396052E-1,4.790115356E-2,1.629722251E-1
3.821378712E0,6.855705380E-2,1.154859960E-1,5.702686310E-2,1.459080122E-1
3.826443139E0,7.067282498E-2,6.789591908E-2,1.563396454E-1,1.845171774E-1
3.831456003E0,1.039833724E-1,4.424282908E-2,2.096910477E-1,2.382022358E-1
3.836468868E0,1.087137014E-1,1.340344548E-2,2.578506470E-1,2.801522396E-1
3.841481733E0,1.161451489E-1,2.511253953E-2,3.317489624E-1,3.523885771E-1
3.846494597E0,4.077884555E-2,-1.388430595E-2,3.979196548E-1,4.002446001E-1
3.851507462E0,-5.607753992E-4,-1.055356860E-1,4.089231491E-1,4.223224329E-1
3.856580587E0,1.095022261E-2,-1.186728030E-1,3.865938187E-1,4.045465637E-1
3.861593451E0,4.627345502E-2,-9.660959244E-2,3.169555664E-1,3.345675972E-1
3.866606316E0,5.041791499E-2,-6.099647284E-2,2.692966461E-1,2.806834863E-1
3.871619180E0,6.190460920E-2,-5.697262287E-2,1.555290222E-1,1.768257254E-1
3.876632045E0,7.820001245E-2,-6.966218352E-2,4.745960236E-2,1.149803271E-1
3.881644910E0,9.456495941E-2,-4.655969143E-2,-7.452964783E-3,1.056687423E-1
3.886720274E0,1.182889789E-1,-5.441597104E-2,-6.667041779E-2,1.462816634E-1
3.891733139E0,1.111330241E-1,-5.968514085E-2,-1.325311661E-1,1.829682351E-1
3.896746003E0,8.988656104E-2,-3.609144688E-2,-1.907281876E-1,2.139145342E-1
3.901758868E0,9.024415910E-2,-4.346939921E-2,-2.531957626E-1,2.722897191E-1
3.906771733E0,9.064778686E-2,-7.903057337E-2,-2.842721939E-1,3.086641104E-1
3.911784597E0,1.075238436E-1,-4.994982481E-2,-3.697280884E-1,3.882720970E-1
3.916845795E0,1.333603114E-1,-1.873940229E-3,-4.283418655E-1,4.486259445E-1
3.921858660E0,1.063014120E-1,2.216967940E-2,-4.294481277E-1,4.429640835E-1
3.926871524E0,6.486052275E-2,1.306182146E-2,-4.638042450E-1,4.684996011E-1
3.931884389E0,1.379327476E-2,-9.909749031E-3,-4.978752136E-1,4.981648180E-1
3.936897253E0,-1.098099351E-2,3.309845924E-3,-5.221681595E-1,5.222940973E-1
3.941910118E0,-3.105691075E-2,1.229128242E-2,-5.581531525E-1,5.591516332E-1
3.946983660E0,-5.831357837E-2,1.247599721E-2,-5.796108246E-1,5.826704316E-1
3.951996524E0,-8.295427263E-2,-8.151531219E-3,-4.940109253E-1,5.009936657E-1
3.957009389E0,-7.641717792E-2,-4.450204968E-2,-4.519166946E-1,4.604874769E-1
3.962022253E0,-8.625954390E-2,-8.715385199E-2,-3.460597992E-1,3.671428706E-1
3.967035118E0,-1.171954721E-1,-1.434426606E-1,-2.339715958E-1,2.984179673E-1
3.972047983E0,-6.938187778E-2,-1.468420327E-1,-1.703357697E-1,2.353522933E-1
3.977125847E0,-5.011564493E-2,-1.527120620E-1,-4.071998596E-2,1.658031031E-1
3.982138712E0,-1.257770658E-1,-1.637744755E-1,7.357597351E-2,2.192153575E-1
3.987151576E0,-1.909614652E-1,-2.131547481E-1,1.322879791E-1,3.152797762E-1
3.992164441E0,-1.534164548E-1,-2.339698374E-1,9.550189972E-2,2.956333984E-1
3.997177305E0,-8.323961496E-2,-2.217143029E-1,6.854629517E-2,2.465454526E-1
4.002190170E0,-4.700364172E-2,-1.741375923E-1,4.895210266E-2,1.868944936E-1
4.007250066E0,-5.425648391E-2,-1.557131857E-1,2.954006195E-2,1.675200809E-1
4.012262930E0,-8.794568479E-2,-1.709036231E-1,-2.532768250E-2,1.938658902E-1
4.017275795E0,-7.916651666E-2,-1.594715565E-1,-4.885482788E-2,1.846220705E-1
4.022288660E0,-8.739872277E-2,-1.267544180E-1,1.096534729E-2,1.543549742E-1
4.027301524E0,-8.616830409E-2,-1.181643754E-1,2.278232574E-2,1.480095626E-1
4.032314389E0,-5.159355700E-2,-8.831211925E-2,5.588245392E-2,1.165494495E-1
4.037384441E0,-6.251779199E-2,-5.843934417E-2,7.681941986E-2,1.149993675E-1
4.042397305E0,-1.838873327E-2,-4.069438577E-2,1.355838776E-1,1.427486126E-1
4.047410170E0,-2.410633862E-2,-3.760346770E-2,1.891069412E-1,1.943105030E-1
4.052423035E0,2.290172875E-2,2.469399571E-2,2.136716843E-1,2.163096652E-1
4.057435899E0,6.745319068E-2,5.326703191E-2,2.023906708E-1,2.198847272E-1
4.062448764E0,8.101551235E-2,8.634966612E-2,1.745672226E-1,2.109348081E-1
4.067518347E0,3.988724947E-2,9.323212504E-2,8.995437622E-2,1.355544599E-1
4.072531212E0,7.512488961E-2,1.026828587E-1,6.542491913E-2,1.430662034E-1
4.077544076E0,1.102886796E-1,9.831079841E-2,9.571647644E-2,1.760404777E-1
4.082556941E0,1.169230491E-1,9.660229087E-2,1.399908066E-1,2.063987111E-1
4.087569805E0,1.119911969E-1,6.655475497E-2,1.933851242E-1,2.331724037E-1
4.092582670E0,1.096392721E-1,5.105763674E-2,2.392015457E-1,2.680392354E-1
4.097661889E0,1.240667999E-1,3.116196394E-2,2.323656082E-1,2.652497214E-1
4.102674753E0,1.622269452E-1,9.234070778E-3,2.588348389E-1,3.056113931E-1
4.107687618E0,1.549402177E-1,-1.029461622E-2,3.278484344E-1,3.627630717E-1
4.112700483E0,2.239504755E-1,-5.964398384E-3,3.487730026E-1,4.145262318E-1
4.117713347E0,2.237123549E-1,-1.851257682E-2,4.312906265E-1,4.862114126E-1
4.122726212E0,2.024193406E-1,-6.680417061E-2,4.632320404E-1,5.099218665E-1
4.127790430E0,1.224106401E-1,-1.010558903E-1,4.569072723E-1,4.836950623E-1
4.132803295E0,4.556651413E-2,-1.284157783E-1,4.007635117E-1,4.232945920E-1
4.137816160E0,3.370131552E-2,-1.131446958E-1,3.308410645E-1,3.512738402E-1
4.142829024E0,5.534286797E-2,-6.251955032E-2,2.520017624E-1,2.654739450E-1
4.147841889E0,1.007648557E-1,-3.627818823E-2,1.785717010E-1,2.082246756E-1
4.152854753E0,1.151867807E-1,-3.389924765E-3,1.580190659E-1,1.955748225E-1
4.157936108E0,6.307436526E-2,1.485407352E-2,8.062744141E-2,1.034398538E-1
4.162948972E0,2.807691693E-2,6.156963110E-2,-1.987934113E-2,7.052886602E-2
4.167961837E0,3.364567459E-2,3.937172890E-2,-1.219320297E-1,1.324748441E-1
4.172974701E0,2.460893989E-2,7.219827175E-2,-1.922502518E-1,2.068292766E-1
4.177987566E0,3.681685030E-2,7.867246866E-2,-1.978397369E-1,2.160680432E-1
4.183000430E0,3.931100667E-2,8.044809103E-2,-1.653728485E-1,1.880569850E-1
4.188055743E0,3.442212939E-2,4.894858599E-2,-1.141672134E-1,1.288991842E-1
4.193068608E0,4.106579721E-2,8.215904236E-4,-8.950233459E-2,9.847711719E-2
4.198081472E0,5.462267995E-2,1.418432593E-2,-3.413391113E-2,6.595419741E-2
4.203094337E0,7.033757865E-2,7.323920727E-4,-1.008701324E-2,7.106095415E-2
4.208107201E0,4.748937488E-2,1.042425632E-2,-5.509757996E-2,7.348230510E-2
4.213120066E0,1.511858404E-2,2.887666225E-3,-1.234664917E-1,1.244222037E-1
4.218188712E0,6.254822016E-3,2.072981000E-2,-2.102289200E-1,2.113410670E-1
4.223201576E0,2.291171253E-2,7.104334235E-2,-2.819776535E-1,2.916907611E-1
4.228214441E0,5.764351785E-2,1.016285419E-1,-3.649759293E-1,3.832212998E-1
4.233227305E0,8.149449527E-2,1.219374835E-1,-4.709939957E-1,4.933005642E-1
4.238240170E0,1.279267520E-1,1.796661317E-1,-4.881935120E-1,5.357033488E-1
4.243253035E0,1.284833103E-1,2.342240214E-1,-5.028486252E-1,5.694081077E-1
4.248336837E0,1.195456386E-1,2.738888860E-1,-5.434999466E-1,6.202406577E-1
4.253349701E0,6.589819491E-2,3.328855634E-1,-6.907396317E-1,7.695950943E-1
4.258362566E0,-2.004295588E-2,3.759060502E-1,-8.653106689E-1,9.436469851E-1
4.263375430E0,-5.724458396E-2,3.724611402E-1,-9.933567047E-1,1.062432015E0
4.268388295E0,-8.174610138E-2,3.638373017E-1,-1.058660507E0,1.122417960E0
4.273401160E0,-7.718817890E-2,3.688247800E-1,-1.002344131E0,1.070833083E0
4.278455899E0,-9.389923513E-2,3.585543931E-1,-8.634138107E-1,9.396072199E-1
4.283470587E0,-8.432982862E-2,3.206664920E-1,-6.971683502E-1,7.719988521E-1
4.288485274E0,-8.578136563E-3,3.026101887E-1,-4.966907501E-1,5.816770685E-1
4.293499910E0,3.748643398E-2,2.966742218E-1,-3.501348495E-1,4.604511260E-1
4.298514597E0,9.207688272E-2,2.193516493E-1,-2.356595993E-1,3.348563052E-1
4.303529233E0,1.809996963E-1,2.156276405E-1,-1.102113724E-1,3.023288210E-1
4.308592253E0,1.852089614E-1,1.899393797E-1,2.849292755E-2,2.668167428E-1
4.313606941E0,1.747315824E-1,1.400523782E-1,1.233196259E-1,2.556433544E-1
4.318621628E0,1.261515319E-1,7.094269991E-2,1.461238861E-1,2.056678530E-1
4.323636264E0,6.828007102E-2,4.015174508E-2,6.898403168E-2,1.050386946E-1
4.328650951E0,2.034956217E-2,6.171888113E-2,-1.462936401E-2,6.661338649E-2
4.333665587E0,-1.362499297E-1,4.282504320E-2,2.834987640E-2,1.456081837E-1
4.338734597E0,-2.837051749E-1,-2.556779981E-2,4.718685150E-2,2.887367964E-1
4.343749285E0,-3.009765148E-1,-6.936335564E-2,7.296371460E-2,3.173670450E-1
4.348763972E0,-2.535706758E-1,-4.833191633E-2,2.248573303E-2,2.591132378E-1
4.353778608E0,-1.825505644E-1,3.248271346E-2,1.040744781E-2,1.857098549E-1
4.358793295E0,-1.236368567E-1,8.902186155E-2,9.105968475E-2,1.774903669E-1
4.363807930E0,-7.470393181E-2,1.332035959E-1,9.027194977E-2,1.774060323E-1
4.368868347E0,-6.899628043E-2,1.841028333E-1,6.098842621E-2,2.058492848E-1
4.373883035E0,-1.325054914E-1,1.633355319E-1,5.571079254E-2,2.175773280E-1
4.378897722E0,-2.028123140E-1,1.498635709E-1,6.948852539E-2,2.615732780E-1
4.383912358E0,-2.654522359E-1,1.720294058E-1,6.890392303E-2,3.237387166E-1
4.388927045E0,-2.493322641E-1,2.059915960E-1,2.081489563E-2,3.240869874E-1
4.393941680E0,-2.690868974E-1,2.018198669E-1,-1.499938965E-2,3.366957064E-1
4.398994285E0,-2.674182355E-1,2.193888724E-1,-5.289936066E-2,3.499176080E-1
4.404008972E0,-2.183295935E-1,2.420553565E-1,-9.762573242E-2,3.402784017E-1
4.409023660E0,-2.078009844E-1,2.628699839E-1,-1.348762512E-1,3.612111304E-1
4.414038295E0,-1.474000663E-1,2.769858539E-1,-1.148271561E-1,3.341155767E-1
4.419052983E0,-9.213456511E-2,2.750642300E-1,-1.044769287E-1,3.083253757E-1
4.424067618E0,-6.313568354E-2,2.597686350E-1,-3.961563110E-2,2.702503589E-1
4.429147618E0,-5.984608829E-2,2.573756874E-1,3.653240204E-2,2.667553470E-1
4.434162253E0,-9.171718359E-2,2.507721484E-1,1.714038849E-1,3.172979734E-1
4.439176941E0,-1.677779704E-1,2.349196076E-1,2.766218185E-1,3.998203345E-1
4.444191576E0,-2.353065312E-1,2.382056713E-1,3.524370193E-1,4.861305978E-1
4.449206264E0,-3.015055954E-1,1.749572158E-1,4.466056824E-1,5.665441615E-1
4.454220899E0,-4.070846438E-1,9.314158559E-2,4.568405151E-1,6.189479126E-1
4.459264545E0,-4.660409093E-1,8.282068372E-2,4.171075821E-1,6.308978759E-1
4.464279233E0,-4.721134901E-1,8.856961131E-2,3.420963287E-1,5.897165605E-1
4.469293920E0,-5.403763652E-1,1.487142146E-1,2.962417603E-1,6.339414123E-1
4.474308555E0,-5.894428492E-1,1.865275204E-1,2.816791534E-1,6.793957122E-1
4.479323243E0,-5.649338961E-1,1.928436160E-1,2.530107498E-1,6.483466717E-1
4.484337878E0,-4.984446764E-1,2.107329369E-1,2.198553085E-1,5.841162751E-1
4.489396472E0,-4.710444808E-1,2.592496574E-1,1.988725662E-1,5.732744416E-1
4.494411160E0,-4.584819674E-1,2.809791267E-1,1.994619370E-1,5.735329532E-1
4.499425847E0,-3.799246550E-1,3.120318353E-1,1.929311752E-1,5.281373383E-1
4.504440483E0,-3.379609585E-1,3.235596418E-1,1.793460846E-1,5.010723195E-1
4.509455170E0,-3.202076852E-1,3.087589741E-1,1.848840714E-1,4.817127625E-1
4.514469805E0,-3.402550220E-1,2.819509804E-1,2.616424561E-1,5.135431921E-1
4.519533035E0,-3.692401350E-1,2.834511101E-1,3.021297455E-1,5.549461165E-1
4.524547722E0,-4.165801406E-1,2.677168250E-1,2.947788239E-1,5.762862717E-1
4.529562410E0,-4.348775744E-1,2.800101340E-1,2.186126709E-1,5.615297675E-1
4.534577045E0,-4.148204327E-1,3.201484382E-1,1.858520508E-1,5.559784156E-1
4.539591733E0,-3.899815083E-1,4.043688178E-1,1.462535858E-1,5.805082506E-1
4.544606368E0,-3.652008176E-1,4.325802922E-1,5.711555481E-2,5.689987109E-1
4.549681420E0,-3.192998767E-1,4.888095558E-1,-9.303569794E-2,5.912214764E-1
4.554696108E0,-2.287520766E-1,5.799899101E-1,-2.324228287E-1,6.653842346E-1
4.559710795E0,-1.840873361E-1,6.110675335E-1,-3.350181580E-1,7.207834931E-1
4.564725430E0,-1.398865730E-1,7.063269615E-1,-5.365390778E-1,8.979644825E-1
4.569740118E0,-1.485593319E-1,7.444927096E-1,-6.580057144E-1,1.004644609E0
4.574754753E0,-2.024941742E-1,7.404022813E-1,-7.475996017E-1,1.071496427E0
4.579811003E0,-2.180798352E-1,7.563571930E-1,-8.198509216E-1,1.136569642E0
4.584825691E0,-2.406982780E-1,7.353243828E-1,-8.178958893E-1,1.125873570E0
4.589840378E0,-2.228384316E-1,7.536032200E-1,-7.898635864E-1,1.114207909E0
4.594855014E0,-1.814163029E-1,7.395477295E-1,-6.837062836E-1,1.023375298E0
4.599869701E0,-1.568558812E-1,6.667793393E-1,-5.309457779E-1,8.666613375E-1
4.604884337E0,-1.535152793E-1,6.140286922E-1,-3.818521500E-1,7.391949948E-1
4.609937462E0,-1.643492132E-1,6.047366858E-1,-3.052768707E-1,6.970732320E-1
4.614952149E0,-1.846430302E-1,6.002115607E-1,-2.887239456E-1,6.911645846E-1
4.619966837E0,-1.859611571E-1,5.888481140E-1,-2.913141251E-1,6.827793002E-1
4.624981472E0,-1.543115824E-1,5.612009764E-1,-2.344942093E-1,6.274919398E-1
4.629996160E0,-1.020013243E-1,5.311443806E-1,-1.852540970E-1,5.716972132E-1
4.635010795E0,-1.524184048E-1,5.248274207E-1,-5.564117432E-2,5.493369931E-1
4.640072097E0,-2.451849729E-1,4.350720048E-1,1.227912903E-1,5.142771833E-1
4.645086785E0,-3.323716521E-1,3.479675651E-1,1.572208405E-1,5.062318976E-1
4.650101472E0,-3.734005988E-1,2.873175442E-1,1.391096115E-1,4.912543765E-1
4.655116108E0,-3.854847550E-1,2.886846662E-1,1.021528244E-1,4.923134493E-1
4.660130795E0,-3.427886963E-1,3.018220365E-1,4.887866974E-2,4.593362128E-1
4.665145430E0,-3.454337716E-1,2.933704853E-1,4.356193542E-2,4.552893305E-1
4.670204180E0,-3.313916326E-1,3.179937899E-1,8.105850220E-2,4.663806871E-1
4.675218868E0,-2.889081836E-1,3.018796742E-1,9.449100494E-2,4.284014779E-1
4.680233555E0,-3.085484207E-1,2.997967005E-1,8.881855011E-2,4.392822832E-1
4.685248191E0,-2.687395215E-1,3.185443282E-1,1.307239532E-1,4.367838955E-1
4.690262878E0,-2.270958722E-1,3.531483710E-1,1.105384827E-1,4.341716979E-1
4.695277514E0,-2.502466440E-1,3.868448436E-1,9.529495239E-2,4.704821398E-1
4.700333920E0,-3.021939695E-1,4.054148197E-1,4.694557190E-2,5.078250269E-1
4.705348608E0,-3.066027761E-1,4.116250277E-1,1.564502716E-2,5.135028652E-1
4.710363295E0,-2.923875153E-1,4.531100988E-1,-3.438282013E-2,5.403530319E-1
4.715377930E0,-2.546973825E-1,5.060287714E-1,-1.053686142E-1,5.762277492E-1
4.720392618E0,-2.078766972E-1,5.681672096E-1,-1.947708130E-1,6.355803403E-1
4.725407253E0,-1.446612626E-1,6.066497564E-1,-2.715702057E-1,6.802214231E-1
4.730470587E0,-6.995837390E-2,6.291425228E-1,-3.833942413E-1,7.400713698E-1
4.735485274E0,-7.771983743E-3,6.476311684E-1,-3.992910385E-1,7.608678383E-1
4.740499962E0,-3.105506301E-3,6.074959040E-1,-3.295612335E-1,6.911378474E-1
4.745514597E0,1.594090462E-2,5.780124664E-1,-1.820468903E-1,6.062124991E-1
4.750529285E0,1.836349070E-2,5.231000185E-1,-1.201915741E-2,5.235602232E-1
4.755543920E0,1.849919558E-2,4.900723100E-1,1.589651108E-1,5.155414587E-1
4.760601941E0,3.540572524E-2,4.212245047E-1,3.237857819E-1,5.324667889E-1
4.765616628E0,4.749780893E-2,3.809320331E-1,4.373626709E-1,5.819375925E-1
4.770631316E0,4.048818350E-2,3.425254822E-1,4.835023880E-1,5.939171307E-1
4.775645951E0,3.121626377E-2,3.270076513E-1,5.245389938E-1,6.189100219E-1
4.780660639E0,-2.559038997E-2,3.058361411E-1,5.605134964E-1,6.390352048E-1
4.785675274E0,-8.915153891E-2,3.003854752E-1,5.392074585E-1,6.236378066E-1
4.790752201E0,-1.285664886E-1,3.102808595E-1,5.157423019E-1,6.154621644E-1
4.795768399E0,-1.722297966E-1,3.166320026E-1,4.806213379E-1,6.007626806E-1
4.800784649E0,-1.939964294E-1,3.339819908E-1,3.222846985E-1,5.030367896E-1
4.805800899E0,-2.036642879E-1,3.935939670E-1,1.272697449E-1,4.610780205E-1
4.810817149E0,-1.965225041E-1,4.740911424E-1,-7.800006866E-2,5.191026070E-1
4.815833347E0,-1.775061041E-1,5.470978022E-1,-2.245550156E-1,6.174539474E-1
4.820873347E0,-1.611348391E-1,5.870108604E-1,-3.366527557E-1,6.956157449E-1
4.825889545E0,-1.238102317E-1,6.252442598E-1,-4.027051926E-1,7.539435191E-1
4.830905795E0,-7.046401501E-2,6.498261690E-1,-4.682283401E-1,8.040379381E-1
4.835922045E0,-4.155990481E-2,6.633985043E-1,-4.619674683E-1,8.094681852E-1
4.840938295E0,8.138105273E-3,6.518503428E-1,-3.678913116E-1,7.485446649E-1
4.845954493E0,-2.060174942E-3,5.795036554E-1,-1.701011658E-1,6.039562381E-1
4.851012097E0,-3.139847517E-2,4.938449264E-1,5.691719055E-2,4.981046498E-1
4.856028295E0,-4.155850410E-2,4.516674280E-1,3.271818161E-1,5.592660508E-1
4.861044545E0,-3.515785933E-2,3.951734900E-1,4.978151321E-1,6.365674105E-1
4.866060795E0,-3.590732813E-4,3.073930144E-1,7.145690918E-1,7.778814699E-1
4.871077045E0,3.430725634E-2,2.644951940E-1,8.345232010E-1,8.761071101E-1
4.876093243E0,8.557452261E-2,2.681702077E-1,9.107542038E-1,9.532635936E-1
4.881144753E0,1.104262173E-1,2.421618104E-1,9.602518082E-1,9.964536251E-1
4.886160951E0,1.044231951E-1,2.462089956E-1,9.428520203E-1,9.800474505E-1
4.891177201E0,9.651166201E-2,2.253741920E-1,9.327487946E-1,9.644316155E-1
4.896193451E0,7.250380516E-2,2.441091835E-1,8.989963531E-1,9.343663833E-1
4.901209701E0,8.961018920E-2,2.526555955E-1,7.396268845E-1,7.867100890E-1
4.906225899E0,6.191122532E-2,2.684075236E-1,6.077013016E-1,6.672154603E-1
4.911279753E0,-6.707310677E-4,2.437199950E-1,5.885105133E-1,6.369807769E-1
4.916295951E0,-3.116908669E-2,2.239094079E-1,5.955982208E-1,6.370590048E-1
4.921312201E0,-7.028524578E-2,2.707749009E-1,5.764799118E-1,6.407715283E-1
4.926328451E0,-9.202745557E-2,3.054233491E-1,5.646381378E-1,6.485126841E-1
4.931344701E0,-8.243721724E-2,3.375069499E-1,5.243787766E-1,6.290309510E-1
4.936360899E0,-1.153589785E-1,3.909551203E-1,4.226760864E-1,5.872041162E-1
4.941409024E0,-1.240612119E-1,4.492554367E-1,2.885408401E-1,5.481582327E-1
4.946425222E0,-1.399200559E-1,4.794067740E-1,9.848308563E-2,5.090259278E-1
4.951441472E0,-1.776304990E-1,4.940229058E-1,-1.541681290E-1,5.471554054E-1
4.956457722E0,-2.015303969E-1,4.915325940E-1,-3.477611542E-1,6.349461490E-1
4.961473972E0,-1.572587937E-1,4.461050034E-1,-4.186506271E-1,6.316710772E-1
4.966490170E0,2.129857242E-2,3.890740871E-1,-4.367589951E-1,5.853124757E-1
4.971545274E0,2.024742961E-1,3.372687101E-1,-3.170108795E-1,5.052147278E-1
4.976561472E0,3.558514118E-1,2.334488630E-1,-2.729415894E-2,4.264663762E-1
4.981577722E0,4.067141116E-1,5.600914359E-2,3.383302689E-1,5.319969582E-1
4.986593920E0,3.303881288E-1,-1.759889424E-1,8.053731918E-1,8.881184615E-1
4.991610222E0,1.972687244E-1,-3.894654512E-1,1.273245811E0,1.346013813E0
4.996626420E0,3.693753481E-2,-5.836297274E-1,1.687339783E0,1.785806144E0
5.001692097E0,-2.146538645E-1,-7.375173569E-1,2.002978325E0,2.145211016E0
5.006708295E0,-4.692603946E-1,-8.026514053E-1,2.118875504E0,2.313890230E0
5.011724545E0,-6.184443831E-1,-7.876441479E-1,2.060491562E0,2.290956620E0
5.016740795E0,-7.167511582E-1,-6.696916819E-1,1.881573677E0,2.121918630E0
5.021757045E0,-7.823235989E-1,-5.331401229E-1,1.687675476E0,1.935075481E0
5.026773243E0,-7.687596083E-1,-4.135383964E-1,1.357771873E0,1.614171553E0
5.031818191E0,-6.085920334E-1,-2.390902042E-1,8.811206818E-1,1.097233815E0
5.036834389E0,-3.819998205E-1,-1.419439912E-2,4.062166214E-1,5.577968154E-1
5.041850639E0,-2.129713297E-1,2.070719302E-1,-5.747604370E-2,3.025542383E-1
5.046866889E0,-8.148528636E-2,4.115443826E-1,-5.267066956E-1,6.733710521E-1
5.051883139E0,4.885196686E-2,5.228671432E-1,-1.030000687E0,1.156147905E0
5.056899337E0,2.134130448E-1,5.924736261E-1,-1.458699226E0,1.588827731E0
5.061944389E0,3.915466070E-1,6.823161840E-1,-1.760156631E0,1.927956298E0
5.066960587E0,5.507208705E-1,6.547163725E-1,-1.934603691E0,2.115334122E0
5.071976837E0,6.745168567E-1,6.129561663E-1,-1.958299637E0,2.160005954E0
5.076993087E0,7.133532763E-1,5.455708504E-1,-1.857786179E0,2.063465516E0
5.082009337E0,6.511053443E-1,3.732157946E-1,-1.571003914E0,1.741057580E0
5.087025535E0,5.963917375E-1,1.071951091E-1,-1.088595390E0,1.245878734E0
5.092081420E0,5.443844795E-1,-1.265856177E-1,-5.878019333E-1,8.111038731E-1
5.097097618E0,5.234739780E-1,-3.129038215E-1,-6.857109070E-2,6.137066088E-1
5.102113868E0,4.519411623E-1,-5.078122616E-1,4.595499039E-1,8.205548253E-1
5.107130118E0,3.341556787E-1,-7.002340555E-1,8.769683838E-1,1.170923267E0
5.112146368E0,2.511999607E-1,-8.557101488E-1,1.234111786E0,1.522620497E0
5.117162566E0,1.852761656E-1,-1.005810618E0,1.523904800E0,1.835284201E0
5.122212253E0,1.121045053E-1,-1.110676885E0,1.717736244E0,2.048606445E0
5.127228451E0,3.353214264E-2,-1.187717080E0,1.846838951E0,2.196044257E0
5.132244701E0,1.378035545E-2,-1.220287800E0,1.880190849E0,2.241519539E0
5.137260951E0,4.821278155E-2,-1.206061363E0,1.841822624E0,2.202094245E0
5.142277201E0,1.127879024E-1,-1.168706656E0,1.734204292E0,2.094292454E0
5.147293399E0,2.077414244E-1,-1.160576582E0,1.543055534E0,1.941935860E0
5.152351993E0,3.282642066E-1,-1.088111281E0,1.380924225E0,1.788489660E0
5.157368191E0,4.198113084E-1,-1.017972231E0,1.271682739E0,1.682167051E0
5.162384441E0,4.590353966E-1,-9.451516867E-1,1.100416183E0,1.521493011E0
5.167400691E0,4.632298350E-1,-8.736948967E-1,7.810506821E-1,1.260144762E0
5.172416941E0,4.134611487E-1,-8.173714876E-1,4.501304626E-1,1.020619275E0
5.177433139E0,3.573719561E-1,-7.640857697E-1,1.579179764E-1,8.581840512E-1
5.182483347E0,2.785192728E-1,-7.062588930E-1,-9.564590454E-2,7.651945820E-1
5.187499545E0,2.194495201E-1,-6.199114323E-1,-3.632373810E-1,7.512587242E-1
5.192515795E0,1.821432263E-1,-5.289306641E-1,-5.802354813E-1,8.059882232E-1
5.197532045E0,1.806083918E-1,-4.595333636E-1,-7.945480347E-1,9.354661313E-1
5.202548295E0,2.337883711E-1,-3.779892325E-1,-9.750843048E-1,1.071597995E0
5.207564545E0,2.890376151E-1,-3.438628316E-1,-1.138644218E0,1.224048629E0
5.212618139E0,3.127942979E-1,-2.853524089E-1,-1.237397194E0,1.307829532E0
5.217634389E0,3.479871154E-1,-2.142324597E-1,-1.364741325E0,1.424608530E0
5.222650639E0,3.085601032E-1,-2.045568675E-1,-1.460835457E0,1.507014625E0
5.227666837E0,3.213070035E-1,-1.554466784E-1,-1.583152771E0,1.622890802E0
5.232683087E0,3.382596076E-1,-1.480316520E-1,-1.710142136E0,1.749548243E0
5.237699337E0,4.215723276E-1,-1.170288026E-1,-1.808327675E0,1.860502069E0
5.242772201E0,4.302300811E-1,-1.294902265E-1,-1.820330620E0,1.874958455E0
5.247788451E0,3.931534886E-1,-1.471221894E-1,-1.734298706E0,1.784378493E0
5.252804701E0,3.368849456E-1,-2.154597640E-1,-1.571886063E0,1.621955662E0
5.257820899E0,3.595374227E-1,-2.892471254E-1,-1.392990112E0,1.467430581E0
5.262837149E0,3.293660581E-1,-3.353526294E-1,-1.226325989E0,1.313323577E0
5.267853347E0,3.182089329E-1,-3.925148845E-1,-1.014440536E0,1.133320106E0
5.272899858E0,3.283398151E-1,-4.703656733E-1,-8.817958832E-1,1.051957642E0
5.277916055E0,3.835367858E-1,-5.164145827E-1,-7.517223358E-1,9.893790768E-1
5.282932358E0,3.736462295E-1,-5.501820445E-1,-6.050662994E-1,8.991201330E-1
5.287948555E0,2.941666245E-1,-5.791761279E-1,-4.035549164E-1,7.647454221E-1
5.292964805E0,2.554925680E-1,-6.226970553E-1,-2.884159088E-1,7.322648506E-1
5.297981003E0,2.216807306E-1,-6.592980623E-1,-1.925458908E-1,7.217272347E-1
5.303038243E0,1.571109295E-1,-6.744835973E-1,-1.350708008E-1,7.055891782E-1
5.308055743E0,1.579859853E-1,-6.632620692E-1,-1.781606674E-1,7.047108396E-1
5.313073191E0,1.953546703E-1,-6.803311110E-1,-1.757555008E-1,7.293173958E-1
5.318090691E0,2.574346364E-1,-6.348506808E-1,-1.255187988E-1,6.964646063E-1
5.323108139E0,3.467499316E-1,-6.416870356E-1,-2.751159668E-2,7.299004416E-1
5.328125639E0,3.390155435E-1,-6.365473866E-1,1.277856827E-1,7.324297201E-1
5.333166993E0,2.749393582E-1,-6.362652779E-1,2.493925095E-1,7.366286570E-1
5.338184493E0,1.902127415E-1,-6.436074972E-1,2.990846634E-1,7.347537910E-1
5.343201941E0,9.397411346E-2,-6.351354122E-1,3.965959549E-1,7.546631549E-1
5.348219441E0,2.170316875E-2,-6.254366636E-1,4.485664368E-1,7.699700617E-1
5.353236889E0,-7.917053998E-3,-5.765509605E-1,4.311389923E-1,7.199684163E-1
5.358254389E0,2.139299363E-2,-5.434529185E-1,3.826780319E-1,6.650121886E-1
5.363291576E0,4.716494679E-2,-4.686524272E-1,2.649393082E-1,5.404187883E-1
5.368309024E0,1.340233386E-1,-3.928220868E-1,1.067161560E-1,4.285554633E-1
5.373326472E0,1.911021024E-1,-3.060764074E-1,-6.802463531E-2,3.671922272E-1
5.378343972E0,2.379020751E-1,-2.054017335E-1,-2.353572845E-1,3.926580202E-1
5.383361420E0,2.458864748E-1,-1.407403052E-1,-4.024763107E-1,4.921942429E-1
5.388378920E0,1.939925402E-1,-1.142799556E-1,-5.550355911E-1,5.989637062E-1
5.393425066E0,2.070279568E-1,-5.367697775E-2,-7.050304413E-1,7.367562120E-1
5.398442514E0,2.204578072E-1,5.423098803E-3,-8.070154190E-1,8.366032161E-1
5.403459962E0,2.293463647E-1,4.865667224E-2,-8.969383240E-1,9.270736669E-1
5.408477462E0,2.458221912E-1,8.800560236E-2,-9.317474365E-1,9.676398200E-1
5.413494910E0,2.317516953E-1,1.018364131E-1,-8.851928711E-1,9.206768827E-1
5.418512410E0,2.683105767E-1,1.256968081E-1,-8.004312515E-1,8.535106570E-1
5.423556576E0,3.215384185E-1,1.715514958E-1,-8.067007065E-1,8.852021804E-1
5.428574024E0,3.026474118E-1,1.600178778E-1,-7.555408478E-1,8.294836646E-1
5.433591472E0,2.858015299E-1,1.629593670E-1,-7.044467926E-1,7.774854040E-1
5.438608972E0,2.014513314E-1,1.177299023E-1,-6.605806351E-1,7.005781500E-1
5.443626420E0,1.595777273E-1,4.831466079E-2,-6.430759430E-1,6.643387885E-1
5.448643920E0,1.482142955E-1,3.369717300E-2,-5.657701492E-1,5.858317494E-1
5.453702670E0,1.959329844E-1,2.102838457E-2,-4.789762497E-1,5.179287355E-1
5.458720118E0,2.550724745E-1,3.143993020E-2,-3.922672272E-1,4.689605676E-1
5.463737566E0,2.779805958E-1,-4.518315196E-3,-2.769346237E-1,3.924110251E-1
5.468755066E0,2.694345117E-1,-1.283238828E-2,-1.880331039E-1,3.288100887E-1
5.473772514E0,2.677507997E-1,-1.288801432E-2,-1.757678986E-1,3.205478838E-1
5.478790014E0,2.466545850E-1,4.075169563E-4,-2.496213913E-1,3.509266154E-1
5.483833555E0,2.156766206E-1,1.989033818E-2,-3.783817291E-1,4.359871135E-1
5.488851003E0,2.754972875E-1,5.325233936E-2,-4.997892380E-1,5.731700005E-1
5.493868451E0,3.112038970E-1,8.402362466E-2,-6.377840042E-1,7.146161704E-1
5.498885951E0,3.181500733E-1,1.794090867E-1,-7.684268951E-1,8.508154810E-1
5.503903399E0,3.348649740E-1,2.438393235E-1,-8.606328964E-1,9.551341000E-1
5.508920899E0,3.588923216E-1,2.992554903E-1,-9.479541779E-1,1.056870224E0
5.513959441E0,3.689521253E-1,3.529375196E-1,-1.030402184E0,1.149964879E0
5.518976889E0,3.552380800E-1,3.881680965E-1,-1.100806236E0,1.220099559E0
5.523994337E0,3.608391881E-1,3.811896145E-1,-1.101766586E0,1.220409789E0
5.529011837E0,4.000881016E-1,3.846363127E-1,-1.086003304E0,1.219597785E0
5.534029285E0,4.132376611E-1,4.101399481E-1,-1.029603958E0,1.182820549E0
5.539046785E0,4.166483879E-1,3.860025704E-1,-1.037891388E0,1.183136677E0
5.544094180E0,4.053851664E-1,3.650324345E-1,-1.041400909E0,1.175628200E0
5.549111628E0,4.104712307E-1,3.470029235E-1,-9.611825943E-1,1.101258208E0
5.554129076E0,4.579310715E-1,2.958709300E-1,-8.834619522E-1,1.038145218E0
5.559146576E0,4.974724650E-1,2.355493009E-1,-7.627763748E-1,9.406328320E-1
5.564164024E0,4.885399342E-1,1.777474284E-1,-6.015653610E-1,7.950762851E-1
5.569181524E0,4.957373738E-1,8.902043104E-2,-4.190177917E-1,6.551763814E-1
5.574229910E0,4.594607353E-1,1.445710659E-2,-2.606086731E-1,5.284222324E-1
5.579247358E0,4.400507212E-1,-5.534313619E-2,-1.023931503E-1,4.551833226E-1
5.584264805E0,4.137386680E-1,-1.397223473E-1,6.998920441E-2,4.422674625E-1
5.589282305E0,4.115331471E-1,-1.957035065E-1,1.560373306E-1,4.816710933E-1
5.594299753E0,4.192000926E-1,-2.063602060E-1,2.037029266E-1,5.097137771E-1
5.599317253E0,3.913312554E-1,-2.173154503E-1,2.465305328E-1,5.110219761E-1
5.604367045E0,4.714987278E-1,-2.236201912E-1,2.916984558E-1,5.978336134E-1
5.609384493E0,5.281276703E-1,-2.228965312E-1,2.722129822E-1,6.345877460E-1
5.614401941E0,5.323151350E-1,-2.031907290E-1,2.623233795E-1,6.272634461E-1
5.619419441E0,5.223538876E-1,-1.808514297E-1,2.309036255E-1,5.990636926E-1
5.624436889E0,4.622113705E-1,-1.393437982E-1,1.899518967E-1,5.187848958E-1
5.629454389E0,3.996946812E-1,-1.145793051E-1,1.538362503E-1,4.433394266E-1
5.634498451E0,3.896664977E-1,-9.223265946E-2,1.656188965E-1,4.333318149E-1
5.639515899E0,3.769511878E-1,-5.300839245E-2,1.462850571E-1,4.078006935E-1
5.644533347E0,3.473093212E-1,-4.709503055E-2,2.068490982E-1,4.069745150E-1
5.649550847E0,2.750939429E-1,-5.800932646E-2,2.217798233E-1,3.580894433E-1
5.654568295E0,2.151908875E-1,-7.114717364E-2,1.985788345E-1,3.013346842E-1
5.659585743E0,1.320690364E-1,-3.670534492E-2,1.969547272E-1,2.399597409E-1
5.664635274E0,7.546831667E-2,-7.230311632E-3,1.810941696E-1,1.963233111E-1
5.669652722E0,7.150144875E-2,-2.075240016E-2,1.867475510E-1,2.010417048E-1
5.674670170E0,6.301309168E-2,-7.703840733E-3,2.042217255E-1,2.138609643E-1
5.679687670E0,6.624971330E-2,1.480302215E-2,2.025489807E-1,2.136217301E-1
5.684705118E0,9.320273995E-2,1.553773880E-3,2.127685547E-1,2.322921067E-1
5.689722618E0,1.339665204E-1,9.804666042E-3,2.775449753E-1,3.083413261E-1
5.694779545E0,1.290587187E-1,3.901660442E-2,3.964338303E-1,4.187340804E-1
5.699796993E0,8.594073355E-2,3.167241812E-3,4.929752350E-1,5.004202468E-1
5.704814441E0,6.888070703E-2,7.013767958E-3,5.982513428E-1,6.022444802E-1
5.709831941E0,3.479315341E-2,6.205123663E-2,6.528043747E-1,6.566692250E-1
5.714849389E0,2.370178699E-4,1.418261230E-1,4.860200882E-1,5.062906591E-1
5.719866889E0,-7.115052640E-2,2.347777486E-1,2.018966675E-1,3.177188269E-1
5.724907566E0,-7.764138281E-2,3.370880187E-1,-1.320819855E-1,3.702730986E-1
5.729925014E0,2.039480209E-2,4.305345714E-1,-4.323701859E-1,6.105079383E-1
5.734942462E0,1.363778412E-1,4.897827506E-1,-5.614757538E-1,7.574569826E-1
5.739959962E0,3.677763343E-1,5.033411980E-1,-5.065670013E-1,8.032570700E-1
5.744977410E0,6.476074457E-1,4.189959764E-1,-1.598920822E-1,7.877299728E-1
5.749994910E0,8.814996481E-1,2.986362576E-1,2.551984787E-1,9.650655457E-1
5.755036837E0,1.082557678E0,2.066325247E-1,6.335954666E-1,1.271247947E0
5.760054285E0,1.240939975E0,5.704331398E-2,1.020686150E0,1.607789220E0
5.765071733E0,1.284988880E0,-1.544066370E-1,1.349811554E0,1.870034508E0
5.770089233E0,1.188409328E0,-3.416183293E-1,1.566747665E0,1.995925365E0
5.775106680E0,9.810365438E-1,-5.167061090E-1,1.617765427E0,1.961270731E0
5.780124180E0,6.302751303E-1,-6.420598030E-1,1.672920227E0,1.899512995E0
5.785171212E0,8.919280767E-2,-8.733481169E-1,1.874752045E0,2.070117755E0
5.790188660E0,-3.331039548E-1,-1.130986929E0,2.020274162E0,2.339144581E0
5.795206108E0,-5.213825107E-1,-1.273388386E0,2.132113457E0,2.537570786E0
5.800223608E0,-6.973777413E-1,-1.351748228E0,2.157742500E0,2.639964334E0
5.805241055E0,-9.414477348E-1,-1.388058186E0,2.061439514E0,2.657548162E0
5.810258555E0,-1.077265739E0,-1.373182654E0,1.965403557E0,2.628486868E0
5.815302566E0,-1.012780190E0,-1.292761922E0,1.740481377E0,2.392954768E0
5.820321003E0,-8.258274198E-1,-1.165986776E0,1.429940224E0,2.021446297E0
5.825339389E0,-4.901339412E-1,-1.013839245E0,1.165475845E0,1.620628039E0
5.830357826E0,-8.568099141E-2,-8.645129204E-1,8.322343826E-1,1.203053569E0
5.835376264E0,3.745898008E-1,-6.629579663E-1,7.102947235E-1,1.041320978E0
5.840394649E0,9.274805784E-1,-4.310232103E-1,9.022760391E-1,1.363856034E0
5.845434337E0,1.344601631E0,-2.887209058E-1,1.053689003E0,1.732505072E0
5.850452774E0,1.653910875E0,-2.443680912E-1,1.059258461E0,1.979183022E0
5.855471160E0,1.785537601E0,-2.756616473E-1,1.017179489E0,2.073351871E0
5.860489597E0,1.715575457E0,-3.485117257E-1,1.044611931E0,2.038596001E0
5.865508035E0,1.391201019E0,-4.551499486E-1,1.048016548E0,1.800261214E0
5.870526420E0,9.649230242E-1,-4.828615189E-1,1.041650772E0,1.499755987E0
5.875568972E0,5.809611678E-1,-4.624867737E-1,8.771104813E-1,1.149231348E0
5.880587410E0,3.710960746E-1,-4.960696399E-1,5.162372589E-1,8.064107463E-1
5.885605795E0,3.396904469E-1,-4.321234226E-1,1.051788330E-1,5.596274109E-1
5.890624285E0,3.636466861E-1,-3.040068150E-1,-3.033370972E-1,5.627365728E-1
5.895642670E0,2.764943242E-1,-2.097112536E-1,-7.188138962E-1,7.981988089E-1
5.900661055E0,1.058211327E-1,-9.669932723E-2,-1.002396584E0,1.012594580E0
5.905706993E0,2.510863543E-2,1.535224915E-2,-1.211567879E0,1.211925270E0
5.910725430E0,-6.779754162E-2,7.141500711E-2,-1.406143188E0,1.409586917E0
5.915743816E0,-6.630098820E-2,5.915737152E-2,-1.581274986E0,1.583769553E0
5.920762253E0,-9.725213051E-3,9.108012915E-2,-1.691484451E0,1.693962756E0
5.925780691E0,-2.540564537E-2,1.406405568E-1,-1.787071228E0,1.792776837E0
5.930799076E0,-1.087949872E-1,1.047397256E-1,-1.839317322E0,1.845506697E0
5.935834962E0,-1.688298285E-1,-6.561517715E-3,-1.912911415E0,1.920358468E0
5.940853399E0,-1.574786007E-1,-6.367790699E-2,-1.952829361E0,1.960203280E0
5.945871785E0,-1.006620526E-1,-1.475844383E-1,-1.971133232E0,1.979212024E0
5.950890222E0,5.240821838E-2,-2.652812898E-1,-1.908084869E0,1.927150397E0
5.955908660E0,2.188318968E-1,-3.303837776E-1,-1.684900284E0,1.730875445E0
5.960927045E0,2.705056667E-1,-4.815576077E-1,-1.447801590E0,1.549580746E0
5.965970639E0,2.589795589E-1,-6.088767052E-1,-1.149013519E0,1.325908489E0
5.970989076E0,2.714520097E-1,-7.576519251E-1,-8.915634155E-1,1.201086157E0
5.976007462E0,2.030830979E-1,-8.823543787E-1,-6.945714951E-1,1.141149226E0
5.981025899E0,2.315928340E-1,-9.327050447E-1,-4.742622375E-1,1.071680275E0
5.986044337E0,2.876956463E-1,-9.687725306E-1,-2.306566238E-1,1.036576808E0
5.991062722E0,3.478043675E-1,-1.048310518E0,1.708602905E-2,1.104633312E0
5.996109337E0,3.259630799E-1,-1.107000232E0,2.594194412E-1,1.182793257E0
6.001127774E0,2.071613669E-1,-1.221997023E0,4.797019958E-1,1.329024665E0
6.006146160E0,1.032977104E-1,-1.293988943E0,7.331190109E-1,1.490818998E0
6.011164597E0,-2.706852555E-2,-1.355137944E0,9.455699921E-1,1.652644597E0
6.016183035E0,-1.776815951E-1,-1.399137497E0,1.098066330E0,1.787430040E0
6.021201420E0,-2.611126900E-1,-1.422241211E0,1.169255257E0,1.859598815E0
6.026244128E0,-3.194363117E-1,-1.377258539E0,1.051656723E0,1.762062003E0
6.031262566E0,-3.513534963E-1,-1.269229770E0,8.843116760E-1,1.586316686E0
6.036280951E0,-3.311448097E-1,-1.136459470E0,6.385746002E-1,1.344981238E0
6.041299389E0,-3.337197304E-1,-1.007332444E0,2.690820694E-1,1.094756901E0
6.046317826E0,-3.473391533E-1,-8.431495428E-1,-1.426868439E-1,9.229870933E-1
6.051336212E0,-3.601354957E-1,-7.101408243E-1,-4.962358475E-1,9.382151043E-1
6.056383555E0,-3.688984215E-1,-5.933470726E-1,-8.323707581E-1,1.086732659E0
6.061401993E0,-3.633893728E-1,-4.795710146E-1,-1.141629219E0,1.290487299E0
6.066420378E0,-3.712084293E-1,-4.017845094E-1,-1.474359512E0,1.572565567E0
6.071438816E0,-4.322183132E-1,-3.086799085E-1,-1.749273300E0,1.828128287E0
6.076457253E0,-4.835251272E-1,-2.808627486E-1,-2.019150257E0,2.095148728E0
6.081475639E0,-5.989458561E-1,-2.387598753E-1,-2.197918415E0,2.290543118E0
6.086511576E0,-6.386889219E-1,-1.915989518E-1,-2.218762398E0,2.316795260E0
6.091530014E0,-6.114728451E-1,-1.916563511E-1,-2.232671738E0,2.322811720E0
6.096548399E0,-5.885726213E-1,-2.029533386E-1,-2.206183910E0,2.292347102E0
6.101566837E0,-5.772156715E-1,-2.228717506E-1,-2.156100273E0,2.243126866E0
6.106585274E0,-5.943058729E-1,-2.156156003E-1,-2.001083374E0,2.098576715E0
6.111603660E0,-6.616035700E-1,-2.613472044E-1,-1.762703896E0,1.900827890E0
6.116653764E0,-7.458882332E-1,-2.934188843E-1,-1.541501999E0,1.737432678E0
6.121672201E0,-8.218138814E-1,-3.127812743E-1,-1.358891487E0,1.618578467E0
6.126690587E0,-8.563828468E-1,-3.483627439E-1,-1.212399483E0,1.524683799E0
6.131709024E0,-8.624557853E-1,-3.339026570E-1,-1.068417549E0,1.413094839E0
6.136727462E0,-7.669101357E-1,-3.133834004E-1,-9.005565643E-1,1.223667617E0
6.141745847E0,-6.683521867E-1,-2.537636161E-1,-7.375364304E-1,1.027156563E0
6.146787878E0,-5.383818150E-1,-1.912166178E-1,-6.774377823E-1,8.861945173E-1
6.151806316E0,-4.494928420E-1,-1.567102969E-1,-7.775545120E-1,9.116978399E-1
6.156824701E0,-4.500097632E-1,-1.358214319E-1,-8.247547150E-1,9.493032120E-1
6.161843139E0,-4.274876714E-1,-1.477746367E-1,-7.856111526E-1,9.065141674E-1
6.166861576E0,-3.033597469E-1,-1.443647742E-1,-7.679052353E-1,8.381806336E-1
6.171879962E0,-1.636011153E-1,-1.115281880E-1,-6.998281479E-1,7.272986307E-1
6.176911160E0,-8.885316551E-2,-1.229938865E-1,-5.551605225E-1,5.755220125E-1
6.181929597E0,-9.458388388E-2,-2.002795637E-1,-3.770809174E-1,4.373191431E-1
6.186947983E0,-1.705293655E-1,-2.521149516E-1,-3.068113327E-1,4.321752043E-1
6.191966420E0,-2.155497074E-1,-2.923997343E-1,-3.059720993E-1,4.749507411E-1
6.196984858E0,-2.406938523E-1,-3.016327620E-1,-3.075275421E-1,4.934460890E-1
6.202003243E0,-2.575293779E-1,-2.696413398E-1,-3.569793701E-1,5.161996739E-1
6.207074805E0,-2.682250142E-1,-2.247861326E-1,-4.447240829E-1,5.659089800E-1
6.212093243E0,-2.338330150E-1,-1.811620891E-1,-4.798355103E-1,5.636840412E-1
6.217111628E0,-1.065668017E-1,-1.480560601E-1,-4.623966217E-1,4.970791847E-1
6.222130066E0,4.201194644E-2,-1.303521097E-1,-4.259748459E-1,4.474497128E-1
6.227148451E0,7.285887003E-2,-1.136832535E-1,-3.657979965E-1,3.899236737E-1
6.232166889E0,1.483247876E-1,-9.352481365E-2,-2.938318253E-1,3.421757954E-1
6.237180170E0,2.103151083E-1,-8.707070351E-2,-2.363672256E-1,3.281512114E-1
6.242198608E0,2.437646389E-1,-7.324525714E-2,-1.502771378E-1,2.955829579E-1
6.247216993E0,2.291888893E-1,-1.601480246E-1,-2.838897705E-2,2.810353550E-1
6.252235430E0,1.683968455E-1,-2.022919953E-1,4.555988312E-2,2.671240384E-1
6.257253868E0,6.095704436E-2,-2.286505997E-1,1.051435471E-1,2.589440548E-1
6.262272253E0,2.160601318E-2,-2.946423292E-1,1.504020691E-1,3.315142597E-1
6.267315691E0,4.376098514E-3,-3.236624002E-1,1.382951736E-1,3.519972367E-1
6.272334128E0,-1.244240999E-2,-3.371796012E-1,7.128715515E-2,3.448575873E-1
6.277352514E0,-1.700083911E-2,-3.469113708E-1,-3.381347656E-2,3.489697392E-1
6.282370951E0,-4.482682049E-2,-3.477071226E-1,-8.846092224E-2,3.615729825E-1
6.287389389E0,2.399778366E-2,-3.394178748E-1,-1.381874084E-1,3.672548805E-1
6.292407774E0,1.849161983E-1,-3.145747185E-1,-1.399536133E-1,3.908174353E-1
6.297447462E0,3.062078059E-1,-2.801966071E-1,-1.656007767E-1,4.468746762E-1
6.302465899E0,3.259967864E-1,-2.333807647E-1,-1.672792435E-1,4.344224112E-1
6.307484285E0,2.188847661E-1,-2.698538303E-1,-1.235094070E-1,3.687630733E-1
6.312502722E0,1.146927178E-1,-3.510136604E-1,-2.958679199E-2,3.704596977E-1
6.317521160E0,9.538853168E-2,-4.146991670E-1,1.837902069E-1,4.635226114E-1
6.322539545E0,8.232411742E-2,-4.107864499E-1,3.585538864E-1,5.514378090E-1
6.327592201E0,7.815301418E-2,-4.160818160E-1,5.186738968E-1,6.695181718E-1
6.332611420E0,8.321660757E-2,-4.285379946E-1,6.617803574E-1,7.927944614E-1
6.337630639E0,6.172981858E-2,-4.051373899E-1,7.376451492E-1,8.438407678E-1
6.342649805E0,2.095127106E-2,-4.009471536E-1,6.985015869E-1,8.056686928E-1
6.347669076E0,-4.893869162E-2,-4.232202768E-1,6.258516312E-1,7.571001667E-1
6.352688295E0,-1.434457898E-1,-3.930179775E-1,5.604248047E-1,6.993681341E-1
6.357741680E0,-1.888098866E-1,-2.837296128E-1,3.897628784E-1,5.177516469E-1
6.362760899E0,-1.880776137E-1,-1.597704887E-1,7.811546326E-2,2.588471044E-1
6.367780118E0,-1.824154109E-1,-7.795679569E-2,-1.087903976E-1,2.262476403E-1
6.372799337E0,-1.743120849E-1,-1.687341928E-2,-6.104183197E-2,1.854602935E-1
6.377818503E0,-1.926432252E-1,1.999807358E-2,9.911155701E-2,2.175647855E-1
6.382837774E0,-2.567979991E-1,4.917919636E-2,2.136468887E-1,3.376518899E-1
6.387869076E0,-3.264057636E-1,9.667515755E-2,2.563304901E-1,4.261362796E-1
6.392888347E0,-4.254636168E-1,1.097256541E-1,2.631454468E-1,5.121567481E-1
6.397907514E0,-4.512707591E-1,7.195049524E-2,1.958475113E-1,4.971704129E-1
6.402926785E0,-3.823080063E-1,3.831958771E-2,2.339696884E-1,4.498551073E-1
6.407946003E0,-1.799628139E-1,2.666721344E-1,4.922351837E-1,5.880443161E-1
6.412965222E0,-9.251320362E-2,3.879060149E-1,7.167615891E-1,8.202298122E-1
6.417987462E0,-1.609090865E-1,4.478199482E-1,6.276721954E-1,7.876590792E-1
6.423006733E0,-2.729863226E-1,5.095546842E-1,2.516469955E-1,6.304710294E-1
6.428025899E0,-4.273042679E-1,5.292413235E-1,-3.990526199E-1,7.886243144E-1
6.433045170E0,-4.837399721E-1,3.987504840E-1,-1.080120087E0,1.248865770E0
6.438064337E0,-3.751575053E-1,3.183333874E-1,-1.427950859E0,1.510338689E0
6.443083608E0,-7.435189188E-2,2.864709496E-1,-1.428682327E0,1.459015765E0
6.448129128E0,3.408530056E-1,3.103194237E-1,-1.118670464E0,1.209918395E0
6.453148347E0,6.781048775E-1,2.770079374E-1,-6.968927383E-1,1.011048521E0
6.458167514E0,8.261559010E-1,8.826690912E-2,-2.998628616E-1,8.833132829E-1
6.463186785E0,7.571837902E-1,-2.370256931E-1,1.370754242E-1,8.051696363E-1
6.468205951E0,4.768246710E-1,-6.040222645E-1,6.833171844E-1,1.029138979E0
6.473225170E0,1.168261170E-1,-9.570649862E-1,1.312520027E0,1.628597725E0
6.478250430E0,-2.203858346E-1,-1.262443662E0,1.890725136E0,2.284113713E0
6.483269649E0,-5.621936321E-1,-1.450257301E0,2.410916328E0,2.869115798E0
6.488288868E0,-8.428665996E-1,-1.515184402E0,2.729697227E0,3.233798824E0
6.493308087E0,-9.108254910E-1,-1.479941964E0,2.744483948E0,3.248387820E0
6.498327305E0,-8.708903790E-1,-1.407314897E0,2.682968140E0,3.152348856E0
6.503346524E0,-6.907491684E-1,-1.283603787E0,2.576359749E0,2.960135580E0
6.508387618E0,-4.645913839E-1,-1.044840097E0,2.350557327E0,2.613934913E0
6.513406837E0,-2.768679261E-1,-7.482318878E-1,2.065521240E0,2.214245876E0
6.518426055E0,-1.514783651E-1,-4.888784289E-1,1.608873367E0,1.688319083E0
6.523445274E0,8.800029755E-4,-3.082058132E-1,1.059740067E0,1.103648769E0
6.528464493E0,1.449398398E-1,-1.923486590E-1,4.469041824E-1,5.076700819E-1
6.533483712E0,2.530198097E-1,-1.253235936E-1,-3.582000732E-2,2.846192196E-1
6.538520378E0,3.353734016E-1,-8.741357923E-2,-3.694763184E-1,5.065858290E-1
6.543539597E0,3.501027524E-1,-1.041197479E-1,-4.298982620E-1,5.641146824E-1
6.548558816E0,3.132694960E-1,-1.632453501E-1,-3.323326111E-1,4.850069956E-1
6.553578035E0,3.242399991E-1,-2.718465328E-1,-3.162822723E-1,5.282675366E-1
6.558597253E0,4.720642865E-1,-3.577134311E-1,-3.434209824E-1,6.846470335E-1
6.563616472E0,5.803260207E-1,-3.847209513E-1,-3.515481949E-1,7.799837396E-1
6.568665222E0,5.966828465E-1,-4.057175815E-1,-3.957347870E-1,8.229478701E-1
6.573684441E0,5.906270146E-1,-4.301098585E-1,-4.544210434E-1,8.604261999E-1
6.578703660E0,5.450707674E-1,-4.415309727E-1,-5.036373138E-1,8.635405522E-1
6.583722878E0,4.499637485E-1,-4.281975031E-1,-5.936107635E-1,8.591822945E-1
6.588742097E0,3.331729472E-1,-3.926941156E-1,-7.720947266E-1,9.280857439E-1
6.593761316E0,3.803886175E-1,-3.611586094E-1,-1.055697441E0,1.178824893E0
6.598800118E0,4.443062544E-1,-2.713853717E-1,-1.291123390E0,1.392141400E0
6.603819337E0,4.329783022E-1,-2.097883523E-1,-1.399435043E0,1.479831005E0
6.608838555E0,3.963084817E-1,-1.647817791E-1,-1.476458549E0,1.537577086E0
6.613857774E0,3.697978556E-1,-1.241728663E-1,-1.519840240E0,1.569102836E0
6.618876993E0,4.085109234E-1,-1.334637702E-1,-1.582260132E0,1.639585581E0
6.623896212E0,4.552316964E-1,-1.706458032E-1,-1.668515205E0,1.737900710E0
6.628927878E0,5.096855760E-1,-1.899216473E-1,-1.754660606E0,1.837031154E0
6.633947097E0,4.883947968E-1,-2.075616419E-1,-1.756999016E0,1.835390110E0
6.638966316E0,4.112194180E-1,-2.638230920E-1,-1.685250282E0,1.754643140E0
6.643985535E0,3.143558800E-1,-4.065488279E-1,-1.589757919E0,1.670757855E0
6.649004753E0,2.459642589E-1,-5.039196610E-1,-1.429893494E0,1.535913033E0
6.654023972E0,2.635849416E-1,-6.015573740E-1,-1.222483635E0,1.387737199E0
6.659058243E0,3.172290325E-1,-6.519141793E-1,-1.060887337E0,1.284954590E0
6.664077462E0,4.023404419E-1,-7.196256518E-1,-8.732805252E-1,1.200982009E0
6.669096680E0,4.854831100E-1,-8.140653372E-1,-6.190319061E-1,1.132076289E0
6.674115899E0,5.694142580E-1,-9.163736105E-1,-3.652067184E-1,1.139012352E0
6.679135118E0,5.896441936E-1,-1.041375875E0,-5.435657501E-2,1.197956020E0
6.684154337E0,5.606818199E-1,-1.182320356E0,2.751893997E-1,1.337151724E0
6.689201420E0,4.706860185E-1,-1.292217016E0,6.210594177E-1,1.509001307E0
6.694220639E0,3.772386909E-1,-1.405268669E0,9.090938568E-1,1.715674999E0
6.699239858E0,2.515763044E-1,-1.529358864E0,1.192031860E0,1.955292594E0
6.704259076E0,1.102504432E-1,-1.626860499E0,1.374212265E0,2.132437477E0
6.709278295E0,-8.526086807E-2,-1.643257022E0,1.482105255E0,2.214542626E0
6.714297514E0,-2.084604353E-1,-1.619531751E0,1.494288445E0,2.213421966E0
6.719328243E0,-1.928491592E-1,-1.565741062E0,1.363060951E0,2.084867149E0
6.724347462E0,-1.637585908E-1,-1.405005813E0,1.093398094E0,1.787841604E0
6.729366680E0,-6.667467952E-2,-1.216007590E0,7.404975891E-1,1.425291778E0
6.734385899E0,1.667496562E-2,-1.019693136E0,3.738317490E-1,1.086187057E0
6.739405118E0,7.675999403E-2,-8.034342527E-1,1.253318787E-2,8.071900495E-1
6.744424337E0,1.332835257E-1,-6.863490343E-1,-2.836341858E-1,7.545116609E-1
6.749463295E0,1.054305136E-1,-5.838181376E-1,-5.626506805E-1,8.176398959E-1
6.754482514E0,2.979084849E-2,-4.855303764E-1,-8.341636658E-1,9.656377490E-1
6.759501733E0,-6.925916672E-2,-4.170218110E-1,-1.100626945E0,1.179018107E0
6.764520951E0,-1.434136480E-1,-3.825629652E-1,-1.287923813E0,1.351173432E0
6.769540170E0,-1.230599731E-1,-3.316006660E-1,-1.381821632E0,1.426370843E0
6.774559389E0,-1.327261180E-1,-3.167924285E-1,-1.329805374E0,1.373446758E0
6.779604180E0,-1.772037894E-1,-3.096477687E-1,-1.213389397E0,1.264751656E0
6.784623399E0,-2.467114031E-1,-3.061581254E-1,-1.068504333E0,1.138552074E0
6.789642618E0,-2.913450003E-1,-3.520889282E-1,-9.166898727E-1,1.024289434E0
6.794661785E0,-3.068265021E-1,-3.977760077E-1,-7.985792160E-1,9.434495317E-1
6.799681003E0,-3.533261120E-1,-3.788336515E-1,-7.165012360E-1,8.841540014E-1
6.804700222E0,-3.523223400E-1,-3.603182733E-1,-6.943016052E-1,8.579131706E-1
6.809742358E0,-3.379820585E-1,-3.443015218E-1,-7.295122147E-1,8.746219075E-1
6.814761576E0,-3.367795944E-1,-3.332940936E-1,-7.622394562E-1,8.975045608E-1
6.819780795E0,-3.129502535E-1,-3.104310632E-1,-8.020591736E-1,9.152072028E-1
6.824800014E0,-2.760415971E-1,-3.138999045E-1,-7.652330399E-1,8.719597001E-1
6.829819233E0,-2.380826026E-1,-2.912469506E-1,-6.829471588E-1,7.796954108E-1
6.834838451E0,-1.483509243E-1,-2.496308833E-1,-6.126956940E-1,6.780262444E-1
6.839866680E0,-2.816873789E-2,-2.271496952E-1,-4.874906540E-1,5.385513899E-1
6.844886524E0,6.538450718E-2,-2.309590876E-1,-3.839731216E-1,4.528273314E-1
6.849906368E0,1.207883358E-1,-2.276283503E-1,-2.614498138E-1,3.670973891E-1
6.854926212E0,1.743497849E-1,-1.979731023E-1,-1.414899826E-1,2.993503164E-1
6.859946055E0,2.052744329E-1,-2.016746104E-1,-8.154201508E-2,2.990975451E-1
6.864965899E0,1.969040036E-1,-2.265741825E-1,-8.632564545E-2,3.123446236E-1
6.870002878E0,2.254186273E-1,-2.198374867E-1,-5.766105652E-2,3.201044760E-1
6.875022722E0,2.164339423E-1,-2.370245755E-1,4.989719391E-2,3.248292332E-1
6.880042566E0,2.464516759E-1,-2.474180460E-1,1.453580856E-1,3.782632563E-1
6.885062410E0,2.983645797E-1,-2.393347025E-1,2.861785889E-1,4.777035764E-1
6.890082253E0,3.096264303E-1,-2.513469458E-1,3.670549393E-1,5.420084334E-1
6.895102097E0,3.378797174E-1,-2.598843575E-1,4.502801895E-1,6.200442175E-1
6.900132253E0,3.541340828E-1,-2.554396391E-1,4.975843430E-1,6.620049367E-1
6.905152097E0,3.221627772E-1,-2.406129241E-1,4.683561325E-1,6.172851052E-1
6.910171941E0,2.775577605E-1,-2.870969772E-1,3.674860001E-1,5.426867835E-1
6.915191785E0,3.064212203E-1,-1.889589429E-1,2.261610031E-1,4.251449702E-1
6.920211628E0,4.013232887E-1,-8.711177111E-2,8.987712860E-2,4.203887974E-1
6.925231472E0,4.471387565E-1,-5.307444930E-2,-1.131553650E-1,4.642780432E-1
6.930269858E0,5.231663585E-1,6.131476164E-2,-1.029195786E-1,5.367075351E-1
6.935289701E0,5.246267915E-1,1.627768874E-1,-3.042984009E-2,5.501414005E-1
6.940309545E0,4.805276990E-1,1.487894058E-1,-2.044172287E-1,5.429839410E-1
6.945329389E0,4.389152527E-1,1.610364914E-1,-4.044876099E-1,6.182148309E-1
6.950349233E0,4.311572313E-1,2.024076581E-1,-5.612602234E-1,7.361239410E-1
6.955369076E0,4.384459257E-1,2.805204391E-1,-7.298583984E-1,8.964484527E-1
6.960403764E0,4.487602711E-1,3.884921074E-1,-8.863639832E-1,1.066748803E0
6.965423608E0,4.262581468E-1,4.140472412E-1,-9.303236008E-1,1.103917174E0
6.970443451E0,4.310629964E-1,3.809746504E-1,-9.910669327E-1,1.145936585E0
6.975463295E0,4.753225744E-1,4.380509853E-1,-1.061427116E0,1.242758118E0
6.980483139E0,5.423001051E-1,4.394294024E-1,-1.069633484E0,1.277224880E0
6.985502983E0,5.293121934E-1,4.422234297E-1,-9.822483063E-1,1.200226935E0
6.990538816E0,3.188704252E-1,3.865163326E-1,-9.548892975E-1,1.078372289E0
6.995558660E0,2.644602060E-1,3.634053469E-1,-1.040100098E0,1.133053776E0
7.000578503E0,2.392519116E-1,3.128308654E-1,-8.956022263E-1,9.783700605E-1
7.005598347E0,1.306588948E-1,2.413669825E-1,-7.752447128E-1,8.223953622E-1
7.010618191E0,9.843733907E-2,1.775940061E-1,-7.076826096E-1,7.362365222E-1
7.015638035E0,7.971332967E-2,1.502092481E-1,-6.569519043E-1,6.786035939E-1
7.020680899E0,9.583055973E-2,7.773256302E-2,-5.249309540E-1,5.392386800E-1
7.025700743E0,9.623007476E-2,5.003333092E-3,-3.571357727E-1,3.699070434E-1
7.030720587E0,1.001517326E-1,-4.179859161E-2,-1.918869019E-1,2.204497106E-1
7.035740430E0,9.287419915E-2,-1.084308624E-1,-1.480579376E-2,1.435342479E-1
7.040760274E0,2.680426836E-2,-1.928932965E-1,1.573629379E-1,2.503784872E-1
7.045780118E0,-1.924732327E-2,-2.760221958E-1,2.983131409E-1,4.068776746E-1
7.050812253E0,-9.061554074E-2,-3.530873954E-1,3.506622314E-1,5.058121050E-1
7.055832097E0,-1.031004786E-1,-3.811848462E-1,3.575887680E-1,5.327300655E-1
7.060851941E0,-9.475551546E-2,-4.150831103E-1,3.813304901E-1,5.715641162E-1
7.065871785E0,-1.272321790E-1,-4.449914098E-1,3.476781845E-1,5.788657030E-1
7.070891628E0,-1.620004773E-1,-4.394363165E-1,2.590694427E-1,5.352246323E-1
7.075911472E0,-1.655694991E-1,-4.411002994E-1,1.681833267E-1,5.002682925E-1
7.080936003E0,-1.591368616E-1,-4.617306590E-1,9.175109863E-2,4.969285726E-1
7.085955847E0,-1.473222524E-1,-4.488233328E-1,2.018737793E-2,4.728147209E-1
7.090975691E0,-1.398120970E-1,-4.360255003E-1,5.158805847E-2,4.607895259E-1
7.095995535E0,-1.128520593E-1,-4.235439003E-1,5.186176300E-2,4.413781431E-1
7.101015378E0,-1.164814234E-1,-4.186670780E-1,2.104949951E-2,4.350782983E-1
7.106035222E0,-1.410894096E-1,-3.781628013E-1,-6.235218048E-2,4.084129285E-1
7.111073191E0,-1.607166380E-1,-3.475507796E-1,-1.647748947E-1,4.168598662E-1
7.116093035E0,-1.849254072E-1,-2.646814585E-1,-2.455148697E-1,4.056244962E-1
7.121112878E0,-2.522089779E-1,-1.727048457E-1,-3.356952667E-1,4.540128240E-1
7.126132722E0,-3.918145895E-1,-9.273797274E-2,-5.023097992E-1,6.437655928E-1
7.131152566E0,-4.966185093E-1,4.270005226E-2,-8.194503784E-1,9.591413665E-1
7.136172410E0,-5.821316242E-1,1.196557879E-1,-1.212798119E0,1.350582842E0
7.141207462E0,-5.081850290E-1,1.320259571E-1,-1.483722687E0,1.573885602E0
7.146227305E0,-2.419909984E-1,1.325341463E-1,-1.498380661E0,1.523571314E0
7.151247149E0,1.138455868E-1,1.208549142E-1,-1.175722122E0,1.187387568E0
7.156266993E0,6.246528029E-1,1.352132559E-1,-7.937011719E-1,1.019036456E0
7.161286837E0,1.092700362E0,9.681761265E-2,-4.026603699E-1,1.168547434E0
7.166306680E0,1.404956937E0,-1.066727638E-1,1.337203979E-1,1.415331840E0
7.171347878E0,1.508137941E0,-3.777056336E-1,7.387008667E-1,1.721284569E0
7.176367722E0,1.379818082E0,-6.957352161E-1,1.405035019E0,2.088556639E0
7.181387566E0,1.100072503E0,-9.709877968E-1,1.965202332E0,2.452549086E0
7.186407410E0,7.600487471E-1,-1.154296279E0,2.369136810E0,2.742787491E0
7.191427253E0,4.501203895E-1,-1.308646917E0,2.518988609E0,2.874103118E0
7.196447097E0,2.342583239E-1,-1.314924240E0,2.443827629E0,2.784994829E0
7.201473764E0,1.684678495E-1,-1.221127987E0,2.079377174E0,2.417301059E0
7.206493608E0,2.512201369E-1,-1.046238542E0,1.610254288E0,1.936658337E0
7.211513451E0,3.638506830E-1,-8.280173540E-1,1.055739403E0,1.390174717E0
7.216533295E0,5.555070043E-1,-5.825061798E-1,4.924964905E-1,9.436388475E-1
7.221553139E0,6.128602028E-1,-4.258162975E-1,-2.958297729E-3,7.462746806E-1
7.226572983E0,6.198797226E-1,-4.261631966E-1,-3.877058029E-1,8.462752095E-1
7.231610743E0,8.932833672E-1,-4.223304689E-1,-6.021432877E-1,1.157106191E0
7.236630587E0,1.288218737E0,-3.805809319E-1,-5.293178558E-1,1.443789026E0
7.241650430E0,1.439643025E0,-3.751571476E-1,-3.036155701E-1,1.518386427E0
7.246670274E0,1.233888984E0,-4.854798317E-1,-1.136398315E-2,1.326009740E0
7.251690118E0,7.871711850E-1,-7.262891531E-1,3.760528564E-1,1.135143233E0
7.256709962E0,2.123174071E-1,-9.571061730E-1,6.815156937E-1,1.193982642E0
7.261756055E0,-2.271690816E-1,-1.229229450E0,9.291028976E-1,1.557511806E0
7.266775899E0,-5.795527697E-1,-1.437978029E0,1.044767380E0,1.869545694E0
7.271795743E0,-8.409328461E-1,-1.471283436E0,1.047866821E0,1.992452728E0
7.276815587E0,-9.027463198E-1,-1.415606737E0,8.716154099E-1,1.891720586E0
7.281835430E0,-7.950826883E-1,-1.304533243E0,6.406927109E-1,1.656638347E0
7.286855274E0,-5.907540917E-1,-1.188077450E0,3.791055679E-1,1.379941830E0
7.291880118E0,-3.866374791E-1,-1.044651628E0,6.300163269E-2,1.115685784E0
7.296899962E0,-1.327655315E-1,-8.023753762E-1,-1.566314697E-2,8.134360853E-1
7.301919805E0,-4.928511381E-2,-6.839456558E-1,-5.815124512E-2,6.881803905E-1
7.306939649E0,-8.781948686E-2,-6.072729230E-1,-2.248497009E-1,6.534906681E-1
7.311959493E0,-1.374752969E-1,-6.673630476E-1,-2.788038254E-1,7.362095270E-1
7.316979337E0,-1.902043819E-2,-6.909824014E-1,-6.149559021E-1,9.251968534E-1
7.322012253E0,2.043583989E-2,-6.320153475E-1,-8.980236053E-1,1.098320271E0
7.327032097E0,-4.912814498E-2,-6.385247707E-1,-7.979707718E-1,1.023173890E0
7.332051941E0,-5.417552590E-2,-6.526584029E-1,-7.053203583E-1,9.624836551E-1
7.337071785E0,-4.696419835E-2,-7.416510582E-1,-5.722208023E-1,9.379171470E-1
7.342091628E0,-6.782096624E-2,-8.817437887E-1,-3.915452957E-1,9.671502008E-1
7.347111472E0,-1.041787863E-1,-9.508466721E-1,-2.279796600E-1,9.833297202E-1
7.352147670E0,-6.965714693E-2,-9.566936493E-1,-9.823226929E-2,9.642429338E-1
7.357167983E0,-1.703566313E-2,-9.714647532E-1,1.689815521E-2,9.717610447E-1
7.362188347E0,1.014037728E-1,-9.759143591E-1,8.393287659E-2,9.847518922E-1
7.367208660E0,1.851068437E-1,-9.631527662E-1,7.663154602E-2,9.837683612E-1
7.372229024E0,2.146684527E-1,-1.007429481E0,5.491542816E-2,1.031509771E0
7.377249389E0,1.591395736E-1,-1.020507336E0,1.360530853E-1,1.041763442E0
7.382282097E0,8.103325963E-2,-1.036170244E0,2.194375992E-1,1.062246687E0
7.387302410E0,-6.030961871E-2,-1.080736279E0,2.739648819E-1,1.116550452E0
7.392322774E0,-1.620213091E-1,-1.102083325E0,2.686061859E-1,1.145856816E0
7.397343087E0,-2.863526940E-1,-1.080996990E0,1.842899323E-1,1.133364521E0
7.402363451E0,-3.114229143E-1,-1.053255320E0,4.743289948E-2,1.099354756E0
7.407383816E0,-3.216080368E-1,-9.807580709E-1,-1.370811462E-1,1.041205726E0
7.412411212E0,-3.891080320E-1,-9.016911983E-1,-2.950153351E-1,1.025419975E0
7.417431524E0,-4.111601710E-1,-8.519942760E-1,-4.718503952E-1,1.057161165E0
7.422451889E0,-4.169872701E-1,-7.766669989E-1,-6.531858444E-1,1.097151657E0
7.427472201E0,-4.068722427E-1,-7.068990469E-1,-8.270378113E-1,1.161569122E0
7.432492566E0,-3.880398273E-1,-5.753390789E-1,-9.838685989E-1,1.203988116E0
7.437512930E0,-3.534229994E-1,-4.966960847E-1,-1.138062477E0,1.291046482E0
7.442545847E0,-3.126525879E-1,-4.299249649E-1,-1.287251472E0,1.392696474E0
7.447566160E0,-3.014843762E-1,-3.461718559E-1,-1.419489861E0,1.491871056E0
7.452586524E0,-3.340619504E-1,-3.073064685E-1,-1.501336098E0,1.568452974E0
7.457606889E0,-3.504710495E-1,-2.364964187E-1,-1.587895393E0,1.643220099E0
7.462627201E0,-3.675418198E-1,-1.693453491E-1,-1.652862549E0,1.701681357E0
7.467647566E0,-4.162629843E-1,-1.392423809E-1,-1.703452110E0,1.759094200E0
7.472699441E0,-4.485032856E-1,-1.456914544E-1,-1.732542992E0,1.795574118E0
7.477719753E0,-4.308297336E-1,-1.384354234E-1,-1.735369682E0,1.793400836E0
7.482740118E0,-3.965321481E-1,-1.296561658E-1,-1.637794495E0,1.690094457E0
7.487760483E0,-3.265345395E-1,-1.337703168E-1,-1.478214264E0,1.519748898E0
7.492780795E0,-2.783080339E-1,-1.582530141E-1,-1.242328644E0,1.282918484E0
7.497801160E0,-2.468228191E-1,-2.012194395E-1,-1.040264130E0,1.087915542E0
7.502836524E0,-2.249998450E-1,-2.699487805E-1,-8.288984299E-1,9.003165451E-1
7.507856837E0,-2.393361330E-1,-3.407590389E-1,-6.393203735E-1,7.629738182E-1
7.512877201E0,-2.248467058E-1,-3.973838687E-1,-4.954156876E-1,6.737259708E-1
7.517897514E0,-2.653636634E-1,-4.664714932E-1,-3.253335953E-1,6.275790596E-1
7.522917878E0,-2.987100482E-1,-5.148348808E-1,-1.266937256E-1,6.085506943E-1
7.527938243E0,-2.961429060E-1,-5.548236370E-1,2.631378174E-2,6.294619163E-1
7.532961733E0,-2.935458422E-1,-5.840498209E-1,1.122093201E-1,6.632301910E-1
7.537982045E0,-3.006468415E-1,-6.004038453E-1,1.334877014E-1,6.846110335E-1
7.543002410E0,-3.030749559E-1,-5.533953309E-1,1.595954895E-1,6.508237407E-1
7.548022722E0,-2.386757731E-1,-5.171720982E-1,1.067848206E-1,5.795136769E-1
7.553043087E0,-1.698334217E-1,-4.724837244E-1,6.367588043E-2,5.061016485E-1
7.558063451E0,-1.108478606E-1,-3.808029294E-1,-5.646705627E-3,3.966484647E-1
7.563098712E0,-6.639927626E-2,-2.970035672E-1,-9.638023376E-2,3.192320978E-1
7.568119024E0,-7.222509384E-2,-2.376667857E-1,-1.798000336E-1,3.066431432E-1
7.573139389E0,-1.018126309E-1,-1.903636456E-1,-2.296285629E-1,3.151720265E-1
7.578159701E0,-8.573886752E-2,-1.169142127E-1,-2.243661880E-1,2.671334365E-1
7.583180066E0,-8.158957958E-2,-4.371941090E-2,-2.071409225E-1,2.268823664E-1
7.588200430E0,-6.527677178E-2,1.955476403E-2,-2.521371841E-1,2.611830878E-1
7.593225274E0,1.121482253E-2,7.555490732E-2,-3.018789291E-1,3.113923636E-1
7.598245587E0,8.066847920E-2,1.245014071E-1,-3.467931747E-1,3.771916091E-1
7.603265951E0,1.117264330E-1,1.594331861E-1,-4.084157944E-1,4.524435852E-1
7.608286264E0,1.693599522E-1,1.781264544E-1,-4.628267288E-1,5.240423724E-1
7.613306628E0,1.508246958E-1,1.638989449E-1,-4.239130020E-1,4.788665642E-1
7.618326993E0,1.112246215E-1,1.043175459E-1,-3.013353348E-1,3.377218542E-1
7.623365326E0,2.185457945E-2,6.857538223E-2,-2.076330185E-1,2.197536713E-1
7.628385639E0,-6.468069553E-2,4.206699133E-2,-1.379671097E-1,1.580763976E-1
7.633406003E0,-1.127219200E-1,-1.125460863E-2,-9.947013855E-2,1.507554507E-1
7.638426316E0,-1.557118297E-1,-2.446645498E-2,-6.817531586E-2,1.717342569E-1
7.643446680E0,-1.893447936E-1,-3.611263633E-2,-7.753753662E-2,2.077682433E-1
7.648467045E0,-1.706784964E-1,-1.737427711E-2,-7.965373993E-2,1.891500275E-1
7.653495847E0,-1.479341984E-1,3.169208765E-2,-1.127986908E-1,1.887126390E-1
7.658516160E0,-1.115282476E-1,9.227818251E-2,-1.960916519E-1,2.437329459E-1
7.663536524E0,-6.871014833E-2,1.146493554E-1,-3.318862915E-1,3.577905388E-1
7.668556837E0,-1.953750849E-2,1.231985688E-1,-4.698944092E-1,4.861690625E-1
7.673577201E0,4.790574312E-2,1.492965221E-1,-5.192108154E-1,5.423691387E-1
7.678597566E0,1.507172585E-1,2.051445246E-1,-5.110778809E-1,5.709645946E-1
7.683628920E0,1.957567334E-1,2.118465304E-1,-3.881645203E-1,4.836024668E-1
7.688649233E0,2.554186285E-1,1.644699574E-1,-1.841230392E-1,3.552327916E-1
7.693669597E0,2.487418056E-1,8.653867245E-2,6.505966187E-2,2.712824861E-1
7.698689910E0,1.615952253E-1,1.378297806E-2,2.636308670E-1,3.095225701E-1
7.703710274E0,2.766293287E-2,-7.313829660E-2,3.662014008E-1,3.744568256E-1
7.708730639E0,-9.318971634E-2,-1.646314263E-1,3.848533630E-1,4.288355638E-1
7.713765483E0,-1.724957228E-1,-2.199985683E-1,3.842983246E-1,4.752255745E-1
7.718785795E0,-2.440218627E-1,-2.559260428E-1,3.382492065E-1,4.893437796E-1
7.723806160E0,-3.178191781E-1,-2.822194397E-1,3.712081909E-1,5.643158363E-1
7.728826472E0,-3.223846555E-1,-2.681474388E-1,4.543991089E-1,6.183150210E-1
7.733846837E0,-2.126973867E-1,-2.404671013E-1,6.236848831E-1,7.014609316E-1
7.738867201E0,-9.666278958E-2,-2.258359492E-1,8.095970154E-1,8.460454469E-1
7.743893764E0,-8.651891351E-2,-2.603998780E-1,1.002547264E0,1.039420336E0
7.748914076E0,-8.122247458E-2,-2.297801077E-1,1.166645050E0,1.191829124E0
7.753934441E0,2.403390408E-2,-1.772924066E-1,1.172767639E0,1.186336445E0
7.758954753E0,1.548418403E-1,-1.243806183E-1,1.147916794E0,1.164971888E0
7.763975118E0,1.825093031E-1,-7.323235273E-2,1.130377769E0,1.147356320E0
7.768995483E0,2.224853635E-1,-4.285216331E-3,1.057892799E0,1.081043605E0
7.774025795E0,3.105940819E-1,9.027421474E-2,8.659019470E-1,9.243399263E-1
7.779046108E0,3.012107015E-1,1.914781332E-1,6.478319168E-1,7.396471825E-1
7.784066472E0,2.265906930E-1,2.525675297E-1,5.219621658E-1,6.225577899E-1
7.789086785E0,1.846965551E-1,3.250148296E-1,4.113435745E-1,5.558336021E-1
7.794107149E0,2.415314913E-1,4.779656529E-1,1.519289017E-1,5.566605948E-1
7.799127514E0,2.764090300E-1,6.619569659E-1,-3.597745895E-1,8.025127612E-1
7.804157618E0,3.588114977E-1,7.362622023E-1,-9.499578476E-1,1.254291686E0
7.809177930E0,5.192033648E-1,6.829518080E-1,-1.381706238E0,1.626378626E0
7.814198295E0,7.507098317E-1,6.631842852E-1,-1.463887215E0,1.773793794E0
7.819218608E0,9.870296121E-1,5.690041780E-1,-1.225671768E0,1.673399084E0
7.824238972E0,1.213686347E0,4.452210665E-1,-8.205184937E-1,1.531178287E0
7.829259337E0,1.329976916E0,2.439740300E-1,-5.955219269E-1,1.477500691E0
7.834290691E0,1.146359444E0,-8.578103781E-2,3.568267822E-2,1.150118087E0
7.839311003E0,8.193695545E-1,-4.973598123E-1,6.707057953E-1,1.169863032E0
7.844331368E0,4.733751416E-1,-8.770888448E-1,1.240252495E0,1.591098714E0
7.849351680E0,6.501227617E-2,-1.216590881E0,1.725348473E0,2.112142827E0
7.854372045E0,-2.789233923E-1,-1.512622595E0,2.138142586E0,2.633909469E0
7.859392410E0,-4.775319993E-1,-1.637255073E0,2.411807060E0,2.953887994E0
7.864427774E0,-5.651259422E-1,-1.603179216E0,2.443684578E0,2.976767584E0
7.869448503E0,-5.839536786E-1,-1.558828831E0,2.250878334E0,2.799536122E0
7.874469285E0,-5.210067630E-1,-1.441967487E0,1.869602203E0,2.417877309E0
7.879490014E0,-4.584922493E-1,-1.159046531E0,1.410157204E0,1.882059335E0
7.884510691E0,-3.397480249E-1,-9.078295827E-1,9.372196198E-1,1.348318912E0
7.889531472E0,-1.818353832E-1,-7.087717652E-1,5.488615036E-1,9.146969290E-1
7.894564389E0,-1.535895467E-2,-5.322412252E-1,2.449131012E-1,5.860879170E-1
7.899585118E0,1.465660632E-1,-4.488420486E-1,3.472709656E-2,4.734414079E-1
7.904605847E0,2.398679554E-1,-4.030272365E-1,-6.032085419E-2,4.728701670E-1
7.909626576E0,3.785581887E-1,-3.563055992E-1,1.126689911E-1,5.319344732E-1
7.914647358E0,5.136179924E-1,-3.682337403E-1,2.518301010E-1,6.803072316E-1
7.919668139E0,6.883170605E-1,-4.650451839E-1,2.710590363E-1,8.737965438E-1
7.924708660E0,8.241264820E-1,-5.680680871E-1,4.312839508E-1,1.089904425E0
7.929729389E0,8.522974253E-1,-6.946384907E-1,7.036190033E-1,1.305378579E0
7.934750170E0,8.136765957E-1,-7.568440437E-1,9.707221985E-1,1.475528412E0
7.939770899E0,7.755740881E-1,-8.299612403E-1,1.213507652E0,1.662212877E0
7.944791628E0,8.289610744E-1,-9.263591766E-1,1.329153061E0,1.819880668E0
7.949812410E0,8.156629801E-1,-1.022451401E0,1.332211494E0,1.866949498E0
7.954835847E0,7.380523682E-1,-1.068203449E0,1.241992950E0,1.796754406E0
7.959856576E0,6.219228506E-1,-1.025217056E0,1.034723282E0,1.583827741E0
7.964877358E0,4.881218970E-1,-9.653831720E-1,7.823743820E-1,1.335042070E0
7.969898087E0,2.741364837E-1,-9.173703194E-1,5.137376785E-1,1.086575132E0
7.974918816E0,2.472501993E-2,-9.027481079E-1,2.240991592E-1,9.304761717E-1
7.979939597E0,-1.218151152E-1,-8.470768929E-1,-1.774110794E-1,8.739867710E-1
7.984974024E0,-2.020800859E-1,-7.615408897E-1,-6.141176224E-1,9.989601303E-1
7.989994753E0,-1.024353504E-1,-6.216182709E-1,-1.078802109E0,1.249286302E0
7.995015535E0,1.345255971E-2,-4.289561510E-1,-1.593003273E0,1.649801133E0
8.000036264E0,1.405485868E-1,-2.618986964E-1,-2.044265747E0,2.065760702E0
8.005056993E0,3.624151349E-1,-1.241591573E-1,-2.327486515E0,2.358803448E0
8.010077774E0,6.478155851E-1,8.844017982E-3,-2.512325287E0,2.594517604E0
8.015102878E0,9.420160651E-1,1.042205691E-1,-2.701855659E0,2.863263907E0
8.020123608E0,1.228910685E0,1.768417358E-1,-2.733453751E0,3.002209832E0
8.025144389E0,1.354030848E0,1.722249389E-1,-2.583474159E0,2.921882903E0
8.030165118E0,1.263593316E0,3.067028522E-2,-2.278502941E0,2.605606338E0
8.035185847E0,1.098093033E0,-2.239693999E-1,-1.902499199E0,2.208047509E0
8.040206628E0,9.422814250E-1,-4.890673757E-1,-1.529716492E0,1.862018724E0
8.045233920E0,7.919958234E-1,-7.026340961E-1,-1.227135658E0,1.620744885E0
