"Time (s)","Linear Acceleration x (m/s^2)","Linear Acceleration y (m/s^2)","Linear Acceleration z (m/s^2)","Absolute acceleration (m/s^2)"
5.345391900E-2,2.253055573E-5,-3.599792719E-3,2.556037903E-2,2.581263240E-2
5.843871100E-2,1.949334145E-2,-1.209971309E-2,4.839897156E-3,2.344819869E-2
6.342350200E-2,5.544829369E-2,2.433842421E-2,-1.821517944E-3,6.058209383E-2
6.840824200E-2,3.395569324E-2,5.561667681E-2,-9.455680847E-3,6.584537754E-2
7.363975200E-2,4.122388363E-2,4.506102204E-2,-1.011943817E-2,6.190563236E-2
7.862454400E-2,2.120339870E-2,6.203410029E-2,-6.723403931E-3,6.590157719E-2
8.360933600E-2,-6.813049316E-3,4.196399450E-2,-4.640960693E-2,6.293843096E-2
8.859412700E-2,2.335667610E-3,3.332975507E-2,-7.192993164E-2,7.931105208E-2
9.357891900E-2,-1.550221443E-2,5.000251532E-2,-3.488254547E-2,6.290756845E-2
9.856365900E-2,-2.749431133E-2,5.032595992E-2,-4.294490814E-2,7.164429170E-2
1.037756380E-1,-7.705450058E-3,3.761929274E-2,-2.637290955E-2,4.658449854E-2
1.087604290E-1,1.279950142E-2,3.726738691E-2,-2.226066589E-2,4.525729344E-2
1.137452210E-1,2.524733543E-2,3.061601520E-2,-5.430984497E-2,6.726312209E-2
1.187300130E-1,-3.298640251E-3,3.360262513E-2,-8.236694336E-2,8.901871040E-2
1.237147520E-1,1.040565968E-2,5.702564120E-2,-4.597568512E-2,7.398624960E-2
1.286995440E-1,1.890885830E-2,6.586843729E-2,1.989936829E-2,7.135951802E-2
1.339145440E-1,4.330277443E-3,3.600457311E-2,4.151535034E-2,5.512354217E-2
1.388993360E-1,8.893728256E-3,1.234686375E-2,6.214141846E-2,6.397733454E-2
1.438841270E-1,6.467103958E-3,-4.869076610E-2,1.070222855E-1,1.177556102E-1
1.488689190E-1,1.555109024E-2,-2.246496081E-2,9.751987457E-2,1.012750552E-1
1.538536590E-1,1.406908035E-3,-3.642219305E-2,1.000862122E-1,1.065166907E-1
1.588384500E-1,-7.629394531E-4,-6.385053694E-2,9.816169739E-2,1.171033389E-1
1.640423560E-1,-1.893699169E-2,-8.816105127E-2,1.125860214E-1,1.442449058E-1
1.690271480E-1,-2.258324623E-2,-9.126603603E-2,8.288002014E-2,1.253339143E-1
1.740119400E-1,3.757119179E-3,-8.770927787E-2,4.057502747E-2,9.671280279E-2
1.789967310E-1,-1.934564114E-2,-8.470612764E-2,5.297470093E-2,1.017629639E-1
1.839814710E-1,-9.344220161E-3,-6.125476956E-2,1.182842255E-2,6.308227029E-2
1.889662630E-1,2.774357796E-3,-4.100677371E-2,-1.405525208E-2,4.343734179E-2
1.941642310E-1,5.138754845E-3,-5.166649818E-2,-4.837894440E-2,7.096728892E-2
1.991490230E-1,5.161762238E-3,-1.345968246E-2,-3.526782990E-2,3.810021873E-2
2.041338150E-1,-8.748412132E-3,7.366240025E-3,-3.652858734E-2,3.827706755E-2
2.091186060E-1,1.716589928E-2,-5.008786917E-3,-7.032299042E-2,7.256086428E-2
2.141033460E-1,2.849483490E-2,6.179958582E-3,-4.504680634E-2,5.365968939E-2
2.190881380E-1,9.131431580E-5,5.432632565E-2,-3.449916840E-2,6.435488029E-2
2.243057420E-1,-1.815474033E-2,5.007380247E-2,-3.126811981E-2,6.176306021E-2
2.292905340E-1,2.464163303E-2,3.437826037E-2,-6.545829773E-2,7.793499603E-2
2.342753250E-1,1.252532005E-2,6.344500184E-2,-6.845760345E-2,9.417322003E-2
2.392601170E-1,7.693767548E-4,5.238011479E-2,-4.808330536E-2,7.110747233E-2
2.442449090E-1,-1.532161236E-2,2.997726202E-2,-4.693984985E-2,5.776450076E-2
2.492296480E-1,-4.999613762E-2,-1.138478518E-3,-2.244186401E-2,5.481374983E-2
2.544373560E-1,-1.838016510E-2,-3.335952759E-3,-1.724815369E-2,2.542553550E-2
2.594221480E-1,-2.266395092E-2,-4.313832521E-2,4.869842529E-2,6.889199082E-2
2.644069400E-1,-3.633153439E-2,-3.768834472E-2,6.403160095E-2,8.270693827E-2
2.693917310E-1,-4.034781456E-2,-2.309745550E-2,6.031799316E-2,7.615575415E-2
2.743765230E-1,-5.826020241E-2,-4.650431871E-2,5.201625824E-2,9.089881168E-2
2.793612630E-1,-2.208507061E-2,-4.387977719E-2,-1.000595093E-2,5.013286591E-2
2.845679290E-1,-2.437114716E-2,-2.733793855E-2,-1.442718506E-2,3.936317272E-2
2.895527210E-1,-2.190816402E-2,-4.867228866E-2,-2.111625671E-2,5.740083302E-2
2.945375130E-1,-4.763698578E-2,-4.381322861E-2,-1.594352722E-2,6.665641361E-2
2.995223040E-1,-1.195514202E-2,-1.552504301E-2,-3.200626373E-2,3.752803351E-2
3.045070440E-1,-1.455235481E-2,-8.940517902E-3,-5.247879028E-2,5.518810851E-2
3.094918360E-1,-7.751584053E-3,-4.787027836E-3,-2.086067200E-2,2.276335492E-2
3.147016270E-1,-1.505577564E-2,3.433552384E-2,-8.646965027E-3,3.847563621E-2
3.196864190E-1,-1.040220261E-3,5.633112788E-2,5.693435669E-3,5.662767200E-2
3.246712110E-1,1.502525806E-2,2.620553970E-2,-1.315784454E-2,3.294871111E-2
3.296560020E-1,4.253864288E-2,1.804995537E-2,-5.052375793E-2,6.846887718E-2
3.346407940E-1,3.202509880E-2,4.560479522E-2,-4.019165039E-2,6.870788209E-2
3.396255340E-1,2.164816856E-2,4.207941890E-2,-1.119422913E-2,4.862747642E-2
3.448350130E-1,3.042972088E-2,6.926634908E-2,1.024150848E-2,7.634581536E-2
3.498198040E-1,1.316475868E-2,9.379574656E-2,2.897167206E-2,9.904701271E-2
3.548045960E-1,2.226746082E-2,5.434185266E-2,3.089141846E-2,6.635628453E-2
3.597893880E-1,1.232445240E-2,2.513128519E-2,3.042984009E-2,4.134548089E-2
3.647741270E-1,-2.586996555E-2,1.099318266E-3,3.706932068E-2,4.521723293E-2
3.697589190E-1,7.432460785E-3,-4.383468628E-2,1.293277740E-2,4.630310925E-2
3.749809500E-1,7.357954979E-3,-4.317033291E-2,-6.142616272E-3,4.422158839E-2
3.799657420E-1,1.180088520E-2,-6.633289158E-2,-2.254867554E-2,7.104756270E-2
3.849505340E-1,6.740331650E-3,-4.919987917E-2,1.322078705E-2,5.138919528E-2
3.899353250E-1,-3.828763962E-2,-1.835286617E-2,4.139232635E-2,5.929667550E-2
3.949201170E-1,2.281427383E-3,-4.675120115E-3,7.781982422E-3,9.360604116E-3
3.999049090E-1,2.348852158E-2,2.058342099E-2,-2.773094177E-2,4.176593106E-2
4.051009500E-1,3.496313095E-2,2.660000324E-2,-3.204917908E-2,5.437950513E-2
4.100857420E-1,5.574429035E-2,3.523659706E-2,-6.468296051E-2,9.237385485E-2
4.150705340E-1,5.040931702E-2,-7.864087820E-3,-3.547000885E-2,6.213746573E-2
4.200553250E-1,3.117775917E-2,-3.131121397E-3,-3.031063080E-2,4.359576731E-2
4.250400650E-1,3.342950344E-2,1.341292262E-2,-3.940582275E-3,3.623487798E-2
4.300248560E-1,1.442468166E-2,2.270981669E-2,4.573059082E-2,5.305746085E-2
4.352240230E-1,-2.064228058E-3,-8.421629667E-3,6.641292572E-2,6.697657491E-2
4.402088150E-1,1.229393482E-2,4.357609153E-2,3.008842468E-2,5.436294589E-2
4.451936060E-1,2.914786339E-3,7.829239964E-2,-1.060485840E-3,7.835381581E-2
4.501783980E-1,-1.808369160E-2,7.732534409E-2,-4.131126404E-2,8.951451992E-2
4.551631380E-1,-2.472925186E-2,9.323766828E-2,-7.634925842E-2,1.230203558E-1
4.601479290E-1,4.102826118E-3,1.164335310E-1,-9.677982330E-2,1.514593494E-1
4.653617310E-1,1.382291317E-2,8.296772838E-2,-1.193838120E-1,1.460383903E-1
4.703465230E-1,1.153099537E-2,5.720961094E-2,-9.438800812E-2,1.109729675E-1
4.753313150E-1,6.798148155E-3,5.957841873E-3,-5.784893036E-2,5.855091324E-2
4.803161060E-1,-1.208782196E-2,-3.529480100E-2,-2.883529663E-2,4.715201744E-2
4.853008460E-1,-1.413190365E-2,-5.991831422E-2,2.591037750E-2,6.679268479E-2
4.902856380E-1,-1.605761051E-2,-8.451440930E-2,3.267097473E-2,9.202132810E-2
4.954948560E-1,-1.574099064E-2,-7.349744439E-2,8.439826965E-2,1.130164636E-1
5.004796480E-1,-2.028036118E-2,-8.183577657E-2,5.029392242E-2,9.817263371E-2
5.054644400E-1,-3.183150291E-2,-6.665301323E-2,4.715919495E-3,7.401424624E-2
5.104492310E-1,-1.487433910E-2,-3.046315908E-2,-9.554862976E-3,3.522137748E-2
5.154339710E-1,4.124045372E-3,-2.049195766E-2,-6.396198273E-2,6.729088581E-2
5.204187630E-1,-2.438187599E-2,-3.201895952E-2,-4.196262360E-2,5.814250962E-2
5.256180860E-1,-2.415108681E-2,-2.676445246E-2,-5.971908569E-3,3.654140940E-2
5.306104290E-1,-1.454782486E-2,-1.913371682E-2,5.950927734E-3,2.476190357E-2
5.356027210E-1,2.079129219E-3,-4.501506686E-2,3.673076630E-2,5.813629001E-2
5.405950650E-1,-1.713109016E-2,-8.519731462E-2,6.011390686E-2,1.056680579E-1
5.455874090E-1,-1.728785038E-2,-8.480070531E-2,7.380008698E-2,1.137386576E-1
5.505797520E-1,-4.126930237E-2,-3.712439537E-2,9.686470032E-2,1.116429407E-1
5.557502210E-1,-1.996636391E-2,-1.844197512E-3,6.278514862E-2,6.590926824E-2
5.607425650E-1,1.790499687E-2,2.600783110E-2,6.697845459E-2,7.404802206E-2
5.657348560E-1,3.659343719E-2,4.419744015E-2,4.501724243E-2,7.293178647E-2
5.707272000E-1,2.885282040E-2,8.383265138E-2,-7.570266724E-3,8.898150156E-2
5.757195440E-1,2.835774422E-2,8.544376493E-2,-2.883338928E-2,9.453128032E-2
5.807118880E-1,2.327895164E-2,6.836363673E-2,-8.315563202E-2,1.101378934E-1
5.859083980E-1,1.112532616E-2,7.087579370E-2,-5.392551422E-2,8.975027631E-2
5.909007420E-1,-7.932305336E-3,2.808594704E-2,-3.921604156E-2,4.888394220E-2
5.958930340E-1,-7.927060127E-3,-1.437935233E-2,-2.937698364E-2,3.365428983E-2
6.008853770E-1,-2.216887474E-2,-2.095198631E-2,-1.250171661E-2,3.296570424E-2
6.058777210E-1,-2.457249165E-2,-3.230789304E-2,1.136779785E-2,4.215251032E-2
6.108700650E-1,-1.740598679E-2,-3.185451031E-2,6.532669067E-3,3.688297667E-2
6.160261590E-1,-8.090138435E-3,-5.057087541E-2,-2.198219299E-2,5.573222217E-2
6.210185020E-1,-2.269911766E-2,-5.739822984E-2,-4.073810577E-2,7.395539191E-2
6.260107940E-1,-1.111114025E-2,-4.274481535E-2,-5.458259583E-2,7.021279402E-2
6.310031380E-1,-1.138865948E-2,-3.536781669E-2,-2.082061768E-2,4.259204318E-2
6.359954810E-1,3.118515015E-4,-3.527262807E-2,2.214813232E-2,4.165087403E-2
6.409878250E-1,3.571498394E-2,4.969596863E-3,2.437877655E-2,4.352679309E-2
6.461514710E-1,5.893766880E-2,2.839243412E-2,3.608894348E-2,7.471406133E-2
6.511438150E-1,3.447043896E-2,3.270483017E-2,3.106975555E-2,5.677276450E-2
6.561361060E-1,1.273214817E-2,3.229939938E-2,1.657009125E-2,3.846981571E-2
6.611284500E-1,3.398621082E-2,4.635643959E-2,-1.682662964E-2,5.989254947E-2
6.661207940E-1,4.566717148E-2,5.573937297E-2,-2.145576477E-2,7.518456019E-2
6.711131380E-1,2.631902695E-2,7.237073779E-2,-2.129554749E-2,7.989815524E-2
6.762810020E-1,-2.369880676E-2,4.148793221E-2,2.326965332E-4,4.778008066E-2
6.812733460E-1,-2.336502075E-2,1.807159185E-2,-2.182960510E-3,2.961877687E-2
6.862656380E-1,1.027822495E-2,1.389431953E-2,-1.171302795E-2,2.087795601E-2
6.912579810E-1,3.641152382E-2,1.672410965E-2,2.398967743E-2,4.670117272E-2
6.962503250E-1,7.684946060E-3,1.236990094E-2,1.188564301E-2,1.879737628E-2
7.012426690E-1,5.378484726E-3,-2.504521608E-2,-4.879951477E-3,2.607690306E-2
7.064152210E-1,1.281487942E-2,-2.185812593E-2,-7.274627686E-3,2.636131657E-2
7.114075650E-1,4.398381710E-2,-5.197611451E-2,2.223968506E-3,6.812516923E-2
7.163998560E-1,4.168522358E-2,-3.432652354E-2,-9.740829468E-3,5.487122964E-2
7.213922000E-1,3.228080273E-2,-4.311519861E-2,4.528999329E-3,5.405073923E-2
7.263845440E-1,-9.032487869E-4,-3.995296359E-2,1.631641388E-2,4.316573317E-2
7.313768880E-1,4.200816154E-3,-5.846604705E-2,2.563762665E-2,6.397822609E-2
7.365503770E-1,-2.155542374E-2,-5.311095715E-2,4.675388336E-2,7.396847755E-2
7.415427210E-1,-4.003775120E-2,-1.707112789E-2,1.544475555E-2,4.618425492E-2
7.465350130E-1,-2.046215534E-2,-2.176138759E-2,1.529121399E-2,3.355710083E-2
7.515273560E-1,-1.307678223E-2,-1.455253363E-2,1.040554047E-2,2.215973242E-2
7.565197000E-1,-2.238655090E-2,-1.451271772E-2,-1.106739044E-2,2.888362457E-2
7.615120440E-1,-2.939784527E-2,-1.204621792E-2,1.278972626E-2,3.424794549E-2
7.666859500E-1,-7.790088654E-3,-4.969179630E-3,1.506519318E-2,1.767309460E-2
7.716782940E-1,1.131403446E-2,1.630738378E-2,1.494026184E-2,2.484249515E-2
7.766705860E-1,-4.803216457E-2,8.854568005E-3,7.678985596E-3,4.944147073E-2
7.816629290E-1,-6.903624535E-2,3.484785557E-2,-6.633758545E-3,7.761689869E-2
7.866552730E-1,-6.924152374E-3,3.448185325E-2,-2.317905426E-2,4.212137991E-2
7.916476170E-1,2.146756649E-2,6.261363626E-2,-2.771472931E-2,7.175952952E-2
7.968197520E-1,1.947402954E-3,4.072210193E-2,-3.694725037E-2,5.501982618E-2
8.018120440E-1,-5.470871925E-3,4.816770554E-3,-5.799007416E-2,5.844638927E-2
8.068043880E-1,-2.243399620E-2,1.500248909E-4,-7.409572601E-2,7.741759042E-2
8.117967310E-1,3.211653233E-2,-3.046607971E-2,-2.356910706E-2,5.015133567E-2
8.167890750E-1,2.935564518E-2,-2.065473795E-2,1.227188110E-2,3.793377347E-2
8.217814190E-1,2.181506157E-2,-1.340362430E-2,2.881908417E-2,3.854988544E-2
8.269555860E-1,2.330541611E-4,-1.585853100E-2,3.096294403E-2,3.478866515E-2
8.319479290E-1,2.877104282E-2,2.436453104E-2,9.330749512E-3,3.883897739E-2
8.369402210E-1,3.796219826E-2,3.105220199E-2,-3.824234009E-2,6.219199563E-2
8.419325650E-1,1.619482040E-2,6.905168295E-3,-8.304691315E-2,8.489253996E-2
8.469249090E-1,-7.761836052E-3,-3.120860457E-2,-7.284259796E-2,7.962579467E-2
8.519172520E-1,-2.196693420E-2,-3.563842177E-2,-5.798244476E-2,7.151648206E-2
8.570741270E-1,-2.671468258E-2,-1.853096485E-2,-7.597923279E-3,3.338861126E-2
8.620664710E-1,-5.334615707E-3,3.864607215E-2,2.574825287E-2,4.674344385E-2
8.670587630E-1,-5.351662636E-3,3.578025103E-2,6.593036652E-2,7.520425444E-2
8.720511060E-1,1.843190193E-2,4.003703594E-2,7.964134216E-2,9.102440682E-2
8.770434500E-1,1.340293884E-2,4.200336337E-2,7.899475098E-2,9.046597143E-2
8.820357940E-1,2.034509182E-2,6.316351891E-2,4.033184052E-2,7.765442834E-2
8.872266790E-1,3.678381443E-2,7.000023127E-2,1.148509979E-2,7.990612554E-2
8.922190230E-1,4.606604576E-2,6.033629179E-2,4.239082336E-3,7.602972115E-2
8.972113150E-1,2.216458321E-2,4.167431593E-2,-2.976417542E-3,4.729562790E-2
9.022036590E-1,-1.351845264E-2,3.742104769E-2,-5.369186401E-3,4.014861809E-2
9.071960020E-1,2.938580513E-2,4.745650291E-2,-2.435874939E-2,6.090150970E-2
9.121883460E-1,7.897377014E-3,-2.574139833E-2,-4.082584381E-2,4.890539515E-2
9.173442310E-1,-6.332278252E-3,-4.134818912E-2,-4.289722443E-2,5.991612767E-2
9.223365750E-1,-4.197740555E-2,-8.066923916E-2,-2.355003357E-2,9.393738768E-2
9.273288670E-1,-3.705060482E-2,-1.009435654E-1,-3.285026550E-2,1.124343838E-1
9.323212110E-1,-2.973783016E-2,-8.577619493E-2,1.257038116E-2,9.165101550E-2
9.373135540E-1,-5.816900730E-2,-6.604143977E-2,2.436161041E-2,9.131589807E-2
9.423058980E-1,-4.846072197E-2,-2.766099572E-2,7.567405701E-3,5.631019346E-2
9.474814190E-1,-1.281929016E-2,-1.130691171E-2,2.894496918E-2,3.361534907E-2
9.524737630E-1,4.175555706E-2,-2.127721906E-2,4.061794281E-2,6.201664191E-2
9.574660540E-1,3.912007809E-2,-9.733140469E-3,4.266071320E-2,5.869455668E-2
9.624583980E-1,5.545639992E-2,-1.949888468E-2,4.231166840E-2,7.242855844E-2
9.674507420E-1,5.043256283E-2,1.847597957E-2,3.956699371E-2,6.671096016E-2
9.724430860E-1,4.792904854E-2,2.287685871E-2,6.771659851E-2,8.605859674E-2
9.776098040E-1,5.274319649E-2,4.391628504E-2,7.898139954E-2,1.046353016E-1
9.826021480E-1,3.621828556E-2,5.298280716E-2,3.312683105E-2,7.222415800E-2
9.875944400E-1,-1.546859741E-3,4.766312242E-2,-1.946926117E-2,5.150939860E-2
9.925867840E-1,-1.771914959E-2,5.926808715E-2,-6.924819946E-2,9.285465818E-2
9.975791270E-1,-2.915823460E-2,5.677467585E-2,-1.209783554E-1,1.367820490E-1
1.002571471E0,-9.773015976E-3,5.202355981E-2,-1.223764420E-1,1.333340023E-1
1.007745377E0,-1.667523384E-2,1.433834434E-2,-1.190204620E-1,1.210352094E-1
1.012737721E0,-4.505920410E-2,6.444752216E-4,-5.153179169E-2,6.845635673E-2
1.017730013E0,-7.078111172E-2,-2.021041512E-2,-2.974319458E-2,7.939196609E-2
1.022722356E0,-7.506322861E-2,-6.722834706E-2,1.391410828E-3,1.007773534E-1
1.027714700E0,-4.372811317E-2,-7.853017747E-2,3.228092194E-2,9.550494530E-2
1.032707044E0,-1.751291752E-2,-7.577578723E-2,6.293392181E-2,1.000467427E-1
1.037886002E0,3.670573235E-3,-8.288325369E-2,7.434463501E-2,1.114012190E-1
1.042884284E0,3.197383881E-2,-3.058505058E-2,4.763412476E-2,6.501370262E-2
1.047882617E0,5.058896542E-2,-1.662233472E-2,3.776550293E-2,6.528229963E-2
1.052880950E0,4.302418232E-2,-4.079636931E-2,4.697227478E-2,7.564270362E-2
1.057879284E0,5.452835560E-2,-6.957748532E-2,4.897689819E-2,1.010599059E-1
1.062877565E0,2.080309391E-2,-5.546811223E-2,5.571842194E-2,8.132664221E-2
1.068029336E0,1.369690895E-2,-1.799058914E-2,7.664299011E-2,7.990878891E-2
1.073027669E0,3.520226479E-2,4.521012306E-5,8.076286316E-2,8.810131415E-2
1.078025950E0,3.520488739E-2,1.543432474E-2,4.446125031E-2,5.877418868E-2
1.083024284E0,-5.181312561E-3,4.729005694E-2,8.463859558E-3,4.832010352E-2
1.088022617E0,-5.488777161E-2,5.280095339E-2,-4.384613037E-2,8.788112027E-2
1.093020950E0,-4.489648342E-2,5.858114362E-2,-1.052207947E-1,1.285257182E-1
1.098156992E0,3.022789955E-3,1.074126661E-1,-1.375875473E-1,1.745764912E-1
1.103155325E0,1.976776123E-2,1.253136396E-1,-1.340751648E-1,1.845817501E-1
1.108153606E0,2.919340134E-2,1.031510532E-1,-9.496784210E-2,1.432176158E-1
1.113151940E0,5.281209946E-3,6.950744987E-2,-6.332015991E-2,9.417334770E-2
1.118150273E0,3.398644924E-2,3.634440899E-2,-4.383754730E-2,6.631534777E-2
1.123148606E0,6.255555153E-2,-1.549506187E-2,3.975868225E-3,6.456857980E-2
1.128290273E0,1.957571507E-2,-3.377717733E-2,5.377674103E-2,6.645332350E-2
1.133288606E0,-1.835489273E-2,-4.975402355E-2,6.516647339E-2,8.401805878E-2
1.138286888E0,-8.461833000E-3,-4.436069727E-2,5.983829498E-2,7.496729705E-2
1.143285221E0,6.202936172E-3,1.779446006E-2,4.979801178E-2,5.324435372E-2
1.148283554E0,8.664846420E-3,5.091345310E-2,-2.894401550E-3,5.172655827E-2
1.153281888E0,-1.972568035E-2,7.911434770E-2,-2.427577972E-2,8.507347388E-2
1.158416784E0,-2.169060707E-2,6.928661466E-2,-5.974578857E-2,9.402487255E-2
1.163415117E0,-4.507720470E-2,7.414588332E-2,-1.400594711E-1,1.647611054E-1
1.168413398E0,-2.081453800E-2,7.939445972E-2,-1.413183212E-1,1.634245794E-1
1.173411731E0,-3.718829155E-2,8.009982109E-2,-1.021852493E-1,1.350584153E-1
1.178410065E0,-2.982127666E-2,5.951064825E-2,-3.723335266E-2,7.627023238E-2
1.183408398E0,3.462195396E-3,2.018582821E-2,-1.319217682E-2,2.436160887E-2
1.188547461E0,7.955551147E-3,-9.424239397E-3,3.203487396E-2,3.432696072E-2
1.193545794E0,-2.073657513E-2,-5.338931084E-2,6.025314331E-2,8.313161455E-2
1.198544127E0,-4.449188709E-2,-4.962584376E-2,7.399463654E-2,9.958643794E-2
1.203542409E0,-5.638384819E-2,-4.127368331E-2,6.864643097E-2,9.795400837E-2
1.208540742E0,-3.032267094E-2,-2.601903677E-2,7.761764526E-2,8.729807274E-2
1.213539075E0,1.220774651E-2,5.816817284E-3,6.037425995E-2,6.187015195E-2
1.218673763E0,3.072130680E-2,-2.198091149E-2,3.376197815E-2,5.066389573E-2
1.223672096E0,1.826345921E-2,-4.947574437E-2,1.686286926E-2,5.536930181E-2
1.228670429E0,2.961182594E-2,-8.876785636E-2,1.436901093E-2,9.467344418E-2
1.233668711E0,9.980201721E-3,-9.694185853E-2,2.377605438E-2,1.003126568E-1
1.238667044E0,-2.207875252E-3,-5.778874457E-2,4.497432709E-2,7.326052012E-2
1.243665377E0,4.995286465E-2,-3.359362483E-2,4.699039459E-2,7.636699221E-2
1.248808971E0,5.907785892E-2,-4.799330235E-2,4.185581207E-2,8.686460435E-2
1.253807304E0,6.828200817E-2,-5.054382980E-2,1.774692535E-2,8.678746874E-2
1.258805638E0,5.375576019E-2,-7.930119336E-2,-1.329612732E-2,9.672201416E-2
1.263803919E0,4.172587395E-2,-6.516231596E-2,-1.557159424E-2,7.892813520E-2
1.268802252E0,3.216862679E-2,-6.538270414E-2,2.968311310E-2,7.868167355E-2
1.273800586E0,2.046549320E-2,-5.871467292E-2,4.604339600E-2,7.737081842E-2
1.278946159E0,-7.649660110E-3,-1.655179262E-2,4.325294495E-2,4.693928403E-2
1.283944492E0,-2.491950989E-3,1.825547218E-2,2.625370026E-2,3.207380335E-2
1.288942825E0,-1.168525219E-2,7.199490070E-2,1.652145386E-2,7.478481987E-2
1.293941106E0,-8.975744247E-3,1.206901073E-1,6.873130798E-3,1.212184224E-1
1.298939440E0,-1.811981201E-2,1.692548394E-1,-2.646446228E-2,1.722669325E-1
1.303937773E0,-1.055729389E-2,1.704137623E-1,-5.003833771E-2,1.779217302E-1
1.309067825E0,3.496313095E-2,1.864909828E-1,-1.043195724E-1,2.165268583E-1
1.314066159E0,6.124687195E-2,1.933735311E-1,-1.225461960E-1,2.369853835E-1
1.319064492E0,4.935777187E-2,1.294361651E-1,-7.650279999E-2,1.582485036E-1
1.324062773E0,3.276503086E-2,5.446299911E-2,-4.985237122E-2,8.077762335E-2
1.329061106E0,9.235382080E-3,-3.359764814E-3,-1.392269135E-2,1.704176153E-2
1.334059440E0,-6.865262985E-3,-6.324255466E-2,5.071640015E-3,6.381593914E-2
1.339204492E0,-2.297461033E-2,-1.109533757E-1,3.818416595E-2,1.195680343E-1
1.344202825E0,-5.331778526E-2,-1.375580579E-1,5.917739868E-2,1.589558745E-1
1.349201159E0,-9.084403515E-2,-1.573812366E-1,6.579399109E-2,1.932623647E-1
1.354199440E0,-7.590031624E-2,-1.562204659E-1,7.238388062E-2,1.881624780E-1
1.359197773E0,-6.599152088E-2,-1.625907421E-1,6.232070923E-2,1.862109047E-1
1.364196106E0,-3.498852253E-2,-1.599330455E-1,4.050159454E-2,1.686509855E-1
1.369341679E0,-4.215896130E-2,-1.315696388E-1,3.786945343E-2,1.432551688E-1
1.374340013E0,-6.500363350E-3,-1.130572110E-1,1.863384247E-2,1.147667538E-1
1.379338346E0,2.188909054E-2,-8.752094209E-2,7.080554962E-2,1.146842336E-1
1.384336627E0,7.389891148E-2,-2.428615093E-2,8.927631378E-2,1.184108375E-1
1.389334961E0,7.104110718E-2,1.922276616E-2,7.907009125E-2,1.080205211E-1
1.394333294E0,8.489060402E-2,4.340451956E-2,9.744739532E-2,1.363318078E-1
1.399472721E0,4.885280132E-2,2.699089050E-2,7.527542114E-2,9.370962275E-2
1.404471054E0,4.186832905E-2,3.458204865E-2,5.563259125E-2,7.774226827E-2
1.409469388E0,6.435632706E-3,4.939115047E-2,4.090118408E-2,6.445005797E-2
1.414467669E0,1.168692112E-2,7.841557264E-2,1.678657532E-2,8.103934396E-2
1.419466002E0,1.694476604E-2,1.003351510E-1,-1.664257050E-2,1.031079181E-1
1.424464336E0,-6.508946419E-3,1.008189321E-1,-7.353401184E-2,1.249562897E-1
1.429601940E0,-4.643166065E-2,1.063203514E-1,-1.109504700E-1,1.605301312E-1
1.434600273E0,-2.432525158E-2,9.534075856E-2,-1.623077393E-1,1.898035309E-1
1.439598606E0,-3.576552868E-2,7.779604197E-2,-1.681051254E-1,1.886550566E-1
1.444596888E0,-5.195796490E-2,8.428406715E-2,-1.809730530E-1,2.062878571E-1
1.449595221E0,-7.767415047E-2,7.187429070E-2,-1.485872269E-1,1.824208083E-1
1.454593554E0,-6.046772003E-2,6.199496984E-2,-1.164665222E-1,1.451350139E-1
1.459735481E0,-5.063593388E-2,5.947792530E-2,-7.272815704E-2,1.067286570E-1
1.464733815E0,-3.153371811E-2,2.371382713E-2,-3.646469116E-2,5.372517731E-2
1.469732148E0,4.141211510E-3,-2.140894532E-2,-2.664089203E-2,3.442716516E-2
1.474730429E0,1.813888550E-2,-6.615570188E-2,-1.452350616E-2,7.011795982E-2
1.479728763E0,2.727067471E-2,-7.257837057E-2,5.213356018E-2,9.343028241E-2
1.484727096E0,2.454686165E-2,-4.598158598E-2,1.206073761E-1,1.313887127E-1
1.489878919E0,4.090106487E-2,-2.193915844E-2,1.409940720E-1,1.484370308E-1
1.494877252E0,3.811514378E-2,-1.476868987E-2,1.445817947E-1,1.502490391E-1
1.499875586E0,1.164841652E-2,-2.934709191E-2,9.825801849E-2,1.032064708E-1
1.504873867E0,9.210944176E-3,1.093053818E-2,6.181335449E-2,6.344453445E-2
1.509872200E0,2.119839191E-2,2.490794659E-2,1.377296448E-2,3.548904301E-2
1.514870534E0,2.353060246E-2,4.605603218E-2,-2.674007416E-2,5.822266670E-2
1.520012513E0,-1.701843739E-2,3.878590465E-2,-4.790878296E-2,6.394704915E-2
1.525010846E0,-1.204061508E-2,6.966960430E-2,-4.040241241E-2,8.143208891E-2
1.530009179E0,-2.354621887E-3,6.947132945E-2,-7.572078705E-2,1.027883624E-1
1.535007461E0,-2.843260765E-2,7.644698024E-2,-7.035732269E-2,1.077158615E-1
1.540005794E0,-2.816390991E-2,5.026739836E-2,-8.642196655E-2,1.038690207E-1
1.545004127E0,2.198886871E-2,1.955491304E-2,-3.346252441E-2,4.456058249E-2
1.550137981E0,3.371763229E-2,3.467381001E-3,-4.033660889E-2,5.268722307E-2
1.555141054E0,1.699769497E-2,-1.953339577E-2,-2.104282379E-2,3.336578513E-2
1.560144127E0,-1.156377792E-2,-5.669888854E-2,1.235866547E-2,5.917112077E-2
1.565147200E0,7.620453835E-3,-2.945500612E-2,2.647876740E-2,4.033353227E-2
1.570150221E0,1.951467991E-2,-1.931309700E-2,4.286479950E-2,5.090392405E-2
1.575153294E0,3.121495247E-2,-4.522755742E-2,4.725933075E-2,7.247999414E-2
1.580268815E0,4.049777985E-2,-7.811619341E-2,8.011817932E-2,1.190005567E-1
1.585271888E0,-3.571522236E-2,-8.237300813E-2,8.656501770E-2,1.247172477E-1
1.590274961E0,-4.488289356E-2,-1.009965241E-1,5.021762848E-2,1.213943253E-1
1.595278034E0,-2.546787262E-2,-9.359192848E-2,6.644153595E-2,1.175692958E-1
1.600281054E0,-2.769923210E-2,-5.556762218E-2,9.917640686E-2,1.170084090E-1
1.605284127E0,-2.516090870E-2,-2.756878734E-2,7.938385010E-2,8.772060772E-2
1.610404856E0,-2.032256126E-2,-3.743171692E-5,1.938533783E-2,2.808556961E-2
1.615407929E0,-2.745437622E-2,5.581027269E-2,2.765655518E-4,6.219811734E-2
1.620411002E0,3.381848335E-3,6.862765551E-2,-7.093048096E-2,9.875386133E-2
1.625414075E0,-1.623630524E-3,9.105855227E-2,-9.641933441E-2,1.326310076E-1
1.630417096E0,1.722121239E-2,6.377166510E-2,-9.795951843E-2,1.181501700E-1
1.635420169E0,1.210200787E-2,1.083911359E-1,-1.089963913E-1,1.541924455E-1
1.640537304E0,3.558325768E-2,1.149878502E-1,-9.382724762E-2,1.526169267E-1
1.645540377E0,2.323782444E-2,7.179561257E-2,-7.641410828E-2,1.073951694E-1
1.650543450E0,3.010106087E-2,5.995428562E-2,-5.916118622E-2,8.944627541E-2
1.655546523E0,8.297443390E-3,1.076000333E-1,-4.679203033E-2,1.176269902E-1
1.660549544E0,1.766240597E-2,3.131484985E-2,-2.978610992E-2,4.668825067E-2
1.665552617E0,1.042032242E-2,1.991978288E-2,-3.906726837E-2,4.507363228E-2
1.670668763E0,1.759648323E-2,2.067837119E-2,-1.740741730E-2,3.225289807E-2
1.675671836E0,4.387032986E-2,3.570914268E-2,-5.448341370E-3,5.682810165E-2
1.680674909E0,6.523072720E-2,-8.843004704E-3,1.353359222E-2,6.720420092E-2
1.685677981E0,6.043541431E-2,-5.766588449E-2,2.045822144E-2,8.600193232E-2
1.690681002E0,3.667569160E-2,-9.430734813E-2,6.296253204E-2,1.191774421E-1
1.695684075E0,-5.891919136E-3,-1.214964390E-1,9.562110901E-2,1.547239344E-1
1.700798606E0,-4.329311848E-2,-1.369265467E-1,1.042575836E-1,1.774621566E-1
1.705801679E0,-3.293573856E-2,-1.004862189E-1,1.389760971E-1,1.746327536E-1
1.710804752E0,-3.811597824E-3,-6.942193210E-2,1.473007202E-1,1.628847295E-1
1.715807825E0,-3.679907322E-2,-6.019699574E-2,9.381103516E-2,1.173812609E-1
1.720810846E0,-3.382205963E-2,-8.306920528E-3,2.413272858E-2,4.237127842E-2
1.725813919E0,-5.230450630E-2,1.465600729E-2,-3.070545197E-2,6.239699279E-2
1.730937721E0,-3.990876675E-2,6.139147282E-2,-7.082271576E-2,1.018699154E-1
1.735940794E0,-1.816451550E-2,7.737532258E-2,-1.011133194E-1,1.286110164E-1
1.740943867E0,-3.828048706E-3,9.352388978E-2,-1.335248947E-1,1.630652306E-1
1.745946940E0,-3.862619400E-3,9.068250656E-2,-8.252906799E-2,1.226755228E-1
1.750949961E0,-2.284467220E-2,7.137325406E-2,-8.660602570E-2,1.145278312E-1
1.755953034E0,-1.575219631E-2,5.710834265E-2,-7.162380219E-2,9.294871450E-2
1.761062721E0,1.502847672E-2,5.734521151E-2,-3.776550293E-2,7.028912865E-2
1.766065794E0,3.135919571E-2,4.113107920E-2,-2.083015442E-2,5.575894695E-2
1.771068867E0,5.235803127E-2,1.074141264E-2,1.496315002E-2,5.550348857E-2
1.776071940E0,3.290414810E-2,-3.619018197E-2,1.006698608E-2,4.993752539E-2
1.781074961E0,1.138830185E-2,-8.277057111E-2,2.895164490E-2,8.842431003E-2
1.786078034E0,1.602780819E-2,-1.004563272E-1,5.957412720E-2,1.178874079E-1
1.791201002E0,-2.450835705E-2,-1.039844751E-1,8.757305145E-2,1.381393136E-1
1.796204075E0,-4.570198059E-2,-8.895225823E-2,1.058521271E-1,1.456222788E-1
1.801207148E0,-6.207287312E-2,-6.706760824E-2,9.786605835E-2,1.338987342E-1
1.806210221E0,-5.450189114E-2,-4.081481695E-2,6.619071960E-2,9.496060647E-2
1.811213242E0,-9.137034416E-3,4.005372524E-3,1.817321777E-2,2.073147972E-2
1.816216315E0,-9.493470192E-3,1.540675759E-2,-5.318164825E-2,5.617634615E-2
1.821332877E0,-1.444780827E-2,2.696096897E-2,-8.120632172E-2,8.677614706E-2
1.826335950E0,-1.454555988E-2,1.960194111E-2,-6.150054932E-2,6.616741625E-2
1.831339023E0,1.829862595E-3,2.429097891E-2,-2.769088745E-2,3.688069009E-2
1.836342096E0,2.751314640E-2,3.851804137E-2,-1.285552979E-3,4.735256469E-2
1.841345117E0,1.270306110E-2,2.643820643E-2,2.964019775E-2,4.169997415E-2
1.846348190E0,3.607666492E-2,5.479156971E-2,5.555248260E-2,8.596348171E-2
1.851467461E0,4.272556305E-2,2.346897125E-2,2.897930145E-2,5.671037173E-2
1.856470534E0,2.092325687E-2,9.127259254E-3,2.399063110E-2,3.311555406E-2
1.861473606E0,3.498411179E-2,6.846100092E-3,-7.093429565E-3,3.634658040E-2
1.866476679E0,1.334774494E-2,-1.675015688E-2,-7.044792175E-3,2.254682122E-2
1.871479700E0,1.094925404E-2,-2.109977603E-2,-1.888275146E-2,3.035860694E-2
1.876482773E0,3.921389580E-3,-2.070778608E-2,2.638244629E-2,3.376719078E-2
1.881595481E0,1.656055450E-3,-3.003332019E-2,5.465221405E-2,6.238274875E-2
1.886598554E0,6.688117981E-3,-3.948768973E-2,8.505153656E-2,9.400942737E-2
1.891601627E0,9.300947189E-3,-3.005951643E-2,5.581569672E-2,6.407397402E-2
1.896604700E0,9.621500969E-3,-2.314290404E-2,2.918910980E-2,3.847299598E-2
1.901607721E0,1.215827465E-2,-1.632973552E-2,-2.570343018E-2,3.278948349E-2
1.906610794E0,5.225300789E-3,2.615708113E-2,-7.302188873E-2,7.774119176E-2
1.911728398E0,1.023435593E-2,3.497022390E-2,-6.768226624E-2,7.686707854E-2
1.916731471E0,-3.861069679E-3,-1.535835862E-2,-6.238937378E-2,6.436785688E-2
1.921734544E0,-1.163482666E-3,-1.768758893E-2,-5.477237701E-2,5.756924333E-2
1.926737617E0,1.360058784E-3,-1.050698757E-2,-9.193420410E-3,1.402731359E-2
1.931740638E0,3.919005394E-3,-1.131445169E-3,3.362751007E-2,3.387400486E-2
1.936743711E0,-1.972579956E-2,-2.509155869E-2,4.759216309E-2,5.730364276E-2
1.941875950E0,-3.356695175E-2,-1.816925406E-2,6.143379211E-2,7.232546479E-2
1.946879075E0,-3.542447090E-2,-6.634682417E-3,4.190635681E-2,5.527255097E-2
1.951882148E0,-3.024137020E-2,-2.376013994E-2,3.443241119E-2,5.162049653E-2
1.956885221E0,-1.802492142E-2,-2.417159081E-2,5.078411102E-2,5.906089676E-2
1.961888242E0,-1.293039322E-2,-1.498594880E-2,1.709747314E-2,2.615525412E-2
1.966891315E0,-8.066892624E-4,-1.309502125E-2,-2.580070496E-2,2.894489083E-2
1.971995481E0,-3.083705902E-3,-4.064828157E-3,1.243019104E-2,1.343658139E-2
1.976998554E0,1.355278492E-2,-3.314104676E-2,5.273056030E-2,6.373789257E-2
1.982001627E0,3.965735435E-2,-1.937597990E-2,6.418323517E-2,7.789494225E-2
1.987004700E0,5.139613152E-2,-2.478742599E-2,6.127738953E-2,8.373110109E-2
1.992007721E0,5.353331566E-2,-1.377725601E-2,8.453369141E-2,1.010028398E-1
1.997010794E0,2.967500687E-2,1.129686832E-2,2.444076538E-2,4.006964286E-2
2.002131627E0,3.944146633E-2,5.782532692E-2,-3.280544281E-2,7.730197137E-2
2.007134700E0,6.119537354E-2,1.137067676E-1,-7.535076141E-2,1.495053176E-1
2.012137773E0,9.707105160E-2,1.550300717E-1,-9.854698181E-2,2.077705942E-1
2.017140846E0,1.305820942E-1,1.655915380E-1,-9.784507751E-2,2.324777408E-1
2.022143867E0,1.189966202E-1,1.146331131E-1,-6.393909454E-2,1.771698452E-1
2.027146940E0,1.029162407E-1,9.047073126E-2,-5.409622192E-2,1.473197442E-1
2.032263190E0,9.909355640E-2,4.049679637E-2,-4.436683655E-2,1.158789870E-1
2.037266263E0,1.945078373E-2,2.808094025E-3,-3.854751587E-3,2.002691912E-2
2.042269336E0,1.866149902E-2,-3.736650944E-2,7.228851318E-4,4.177355786E-2
2.047272409E0,-5.979895592E-3,-6.078395247E-2,5.302429199E-4,6.107969538E-2
2.052275429E0,-1.042606235E-1,-1.200636923E-1,1.462936401E-2,1.596858983E-1
2.057278502E0,-9.018027782E-2,-1.292036921E-1,2.150535583E-2,1.590237620E-1
2.062395117E0,-5.733752251E-2,-9.806802869E-2,3.071880341E-2,1.176799669E-1
2.067401992E0,-7.710778713E-2,-1.196942329E-1,6.600379944E-2,1.569357250E-1
2.072408867E0,-1.605355740E-2,-1.106541455E-1,5.113315582E-2,1.229498119E-1
2.077415742E0,-3.859996796E-2,-7.814070582E-2,1.005277634E-1,1.330479562E-1
2.082422617E0,-1.369255781E-1,-3.892090917E-2,1.732654572E-1,2.242417663E-1
2.087429492E0,2.450191975E-2,-3.581628203E-2,9.336853027E-2,1.029603447E-1
2.092526731E0,2.109563351E-1,-2.821499109E-2,2.124595642E-2,2.138926172E-1
2.097533606E0,2.941101789E-1,-2.542936802E-2,3.995037079E-2,2.978984428E-1
2.102540481E0,2.178738117E-1,-2.529525757E-2,4.420280457E-2,2.237470353E-1
2.107547356E0,1.426743269E-1,1.763749123E-2,2.937030792E-2,1.467298867E-1
2.112554231E0,1.066594124E-1,8.883345127E-2,5.260658264E-2,1.484421263E-1
2.117561106E0,1.616271734E-1,1.715260744E-1,2.096080780E-2,2.366091563E-1
2.122658867E0,1.832638979E-1,2.447146177E-1,-3.358840942E-3,3.057485604E-1
2.127665742E0,1.859627962E-1,2.659123540E-1,-4.416179657E-2,3.274779471E-1
2.132672617E0,1.483640671E-1,2.209184170E-1,-8.702754974E-2,2.799832812E-1
2.137679492E0,1.089189053E-1,1.652206182E-1,-7.019805908E-2,2.099736843E-1
2.142686367E0,2.942383289E-2,8.435621858E-2,-8.678340912E-2,1.245515703E-1
2.147693242E0,-5.199503899E-2,1.378279924E-2,-7.470417023E-2,9.205521541E-2
2.152792669E0,-1.282707453E-1,-2.297726274E-2,-5.793857574E-2,1.426121217E-1
2.157799544E0,-1.901412606E-1,-3.850021958E-2,-7.687759399E-2,2.086770959E-1
2.162806419E0,-2.353899479E-1,-6.389588118E-2,-5.282306671E-2,2.495623922E-1
2.167813294E0,-2.214987278E-1,-8.947661519E-2,-6.927108765E-2,2.487292397E-1
2.172820169E0,-2.487261295E-1,-1.153662950E-1,-1.306333542E-1,3.037089771E-1
2.177827044E0,-2.785709500E-1,-1.293581575E-1,-1.795482635E-1,3.557708336E-1
2.182936836E0,-3.111556172E-1,-1.505628675E-1,-1.971015930E-1,3.979146054E-1
2.187943711E0,-2.893164158E-1,-1.360264570E-1,-1.550664902E-1,3.553207028E-1
2.192950586E0,-2.037743330E-1,-1.548276991E-1,-1.038541794E-1,2.761906692E-1
2.197957461E0,-1.476582885E-1,-1.500267237E-1,-5.524635315E-3,2.105742377E-1
2.202964336E0,-9.464007616E-2,-1.217277795E-1,8.726692200E-2,1.771719842E-1
2.207971211E0,-4.676651955E-2,-1.131231487E-1,1.864233017E-1,2.230192851E-1
2.213078606E0,-6.325602531E-3,-8.598247170E-2,2.229928970E-1,2.390791309E-1
2.218085481E0,5.061852932E-2,-1.186844707E-2,2.354936600E-1,2.411645899E-1
2.223092356E0,1.312551498E-1,7.113501430E-2,2.502222061E-1,2.913747708E-1
2.228099231E0,2.212352753E-1,1.537671685E-1,2.433834076E-1,3.630769508E-1
2.233106106E0,2.753014565E-1,2.526901066E-1,1.771526337E-1,4.135531859E-1
2.238112981E0,3.009835482E-1,2.563249171E-1,5.913162231E-2,3.997375491E-1
2.243206054E0,3.032073975E-1,2.728713453E-1,-2.949047089E-2,4.089782205E-1
2.248212929E0,2.819833755E-1,2.639710009E-1,-9.368324280E-2,3.974567440E-1
2.253219804E0,1.849706173E-1,2.084615231E-1,-1.383743286E-1,3.111555731E-1
2.258226679E0,1.314204931E-1,1.279613078E-1,-1.446962357E-1,2.336288572E-1
2.263233554E0,1.043515205E-1,2.445816994E-2,-1.604604721E-1,1.929637402E-1
2.268240429E0,6.531798840E-2,-9.131491184E-3,-1.736907959E-1,1.857910555E-1
2.273324179E0,7.605528831E-2,-7.597395778E-2,-1.558723450E-1,1.893479260E-1
2.278331054E0,9.075891972E-2,-1.619247049E-1,-1.119747162E-1,2.167835986E-1
2.283337929E0,1.212525368E-2,-2.218036801E-1,-5.410099030E-2,2.286281072E-1
2.288344804E0,-5.217212439E-2,-2.557655573E-1,8.125305176E-3,2.611589008E-1
2.293351679E0,-6.651639938E-2,-2.688290179E-1,-1.356124878E-3,2.769391834E-1
2.298358554E0,-6.431901455E-2,-2.612823546E-1,1.172065735E-3,2.690850761E-1
2.303455169E0,-4.320156574E-2,-2.543572187E-1,8.456230164E-3,2.581384858E-1
2.308462044E0,1.829147339E-2,-2.215699852E-1,-5.321979523E-2,2.286048620E-1
2.313468919E0,8.913779259E-2,-1.705220342E-1,-9.879112244E-3,1.926678672E-1
2.318475794E0,1.572268009E-1,-1.603922695E-1,6.871604919E-2,2.348783567E-1
2.323482669E0,2.064121962E-1,-1.150133908E-1,1.347198486E-1,2.719991037E-1
2.328489544E0,2.486262321E-1,-6.556126475E-2,1.834974289E-1,3.158869880E-1
2.333588346E0,3.026567698E-1,1.411655545E-2,2.104692459E-1,3.689142189E-1
2.338595221E0,3.161407709E-1,8.844006062E-2,1.611671448E-1,3.657068223E-1
2.343602096E0,3.297715187E-1,1.314684451E-1,1.051177979E-1,3.702471580E-1
2.348714075E0,3.338310719E-1,1.340920031E-1,2.101135254E-2,3.603683210E-1
2.353732513E0,3.496950865E-1,2.039502263E-1,-2.440738678E-2,4.055589585E-1
2.358739388E0,4.105141163E-1,2.408323586E-1,-1.074838638E-1,4.879291399E-1
2.363755742E0,4.518836737E-1,2.283300757E-1,-1.566495895E-1,5.299741238E-1
2.368780013E0,4.643033743E-1,1.951157749E-1,-1.294012070E-1,5.199927512E-1
2.373786888E0,4.695339203E-1,1.793880165E-1,-1.404151917E-1,5.218798605E-1
2.378793763E0,4.747289419E-1,1.786945462E-1,-1.774959564E-1,5.374049904E-1
2.383800638E0,5.011569262E-1,1.545096636E-1,-1.216201782E-1,5.383520860E-1
2.388807513E0,4.989098310E-1,1.045501530E-1,-1.137342453E-1,5.222807986E-1
2.393814388E0,4.633285999E-1,7.879170775E-2,-1.106557846E-1,4.828314689E-1
2.398821315E0,4.134328365E-1,3.505319357E-3,-1.598329544E-1,4.432669296E-1
2.403932409E0,3.231812716E-1,-9.256911278E-2,-1.800508499E-1,3.813574222E-1
2.408939284E0,2.830806971E-1,-1.594678313E-1,-1.406545639E-1,3.540457267E-1
2.413946159E0,2.190954685E-1,-2.049518079E-1,-9.676456451E-2,3.152323727E-1
2.418953034E0,1.838954687E-1,-2.173788399E-1,-1.755809784E-2,2.852707315E-1
2.423959909E0,1.942169666E-1,-2.040603161E-1,6.099891663E-2,2.882389817E-1
2.428966784E0,2.092530727E-1,-1.678152531E-1,7.715892792E-2,2.791098490E-1
2.434050742E0,2.219502926E-1,-1.348530799E-1,7.893657684E-2,2.714374121E-1
2.439057617E0,2.134689093E-1,-1.570875496E-1,8.305168152E-2,2.777463866E-1
2.444064492E0,2.316583395E-1,-1.532755792E-1,1.108493805E-1,2.990762020E-1
2.449071367E0,2.620391846E-1,-1.378763765E-1,1.716327667E-1,3.422458708E-1
2.454078242E0,3.115829229E-1,-1.534823328E-1,1.914815903E-1,3.966181334E-1
2.459085117E0,3.539018631E-1,-1.074643731E-1,1.755075455E-1,4.093873700E-1
2.464191054E0,3.485590219E-1,-9.054988623E-2,1.881599426E-1,4.063211017E-1
2.469197929E0,3.124369383E-1,-4.061660171E-2,1.436920166E-1,3.462859286E-1
2.474204804E0,3.001692295E-1,-5.312621593E-3,9.724044800E-2,3.155716955E-1
2.479211679E0,3.234349489E-1,5.981951952E-3,2.269077301E-2,3.242850923E-1
2.484218554E0,3.060734272E-1,3.664633632E-2,-8.213138580E-2,3.190132620E-1
2.489225429E0,3.123557568E-1,4.613521695E-2,-1.718177795E-1,3.594661686E-1
2.494317409E0,3.089594841E-1,2.239844203E-2,-2.108612061E-1,3.747267021E-1
2.499324284E0,2.696691751E-1,4.434925318E-2,-2.115545273E-1,3.456061896E-1
2.504331159E0,2.329269648E-1,5.671837926E-2,-1.955995560E-1,3.094044792E-1
2.509338034E0,1.915310621E-1,3.593939543E-2,-1.845149994E-1,2.683683530E-1
2.514344909E0,1.193872690E-1,8.166581392E-3,-1.521177292E-1,1.935453864E-1
2.519351784E0,5.945765972E-2,3.543463349E-2,-1.484756470E-1,1.638164958E-1
2.524451784E0,3.091144562E-2,6.743267179E-2,-1.187419891E-1,1.400083665E-1
2.529458659E0,1.689100266E-2,9.460824728E-2,-1.225242615E-1,1.557184031E-1
2.534465534E0,1.744294167E-2,1.123765111E-1,-1.096820831E-1,1.579965057E-1
2.539472409E0,8.692502975E-3,8.987656236E-2,-6.847476959E-2,1.133232109E-1
2.544479284E0,1.695156097E-2,1.319675744E-1,-1.577758789E-2,1.339840602E-1
2.549486159E0,5.153095722E-2,1.266103089E-1,1.743030548E-2,1.378021241E-1
2.554582461E0,5.775797367E-2,8.795544505E-2,5.744457245E-2,1.198833714E-1
2.559589336E0,7.598865032E-2,6.396096945E-2,1.018533707E-1,1.422652091E-1
2.564596211E0,1.322873831E-1,-3.591340780E-2,1.221170425E-1,1.835818528E-1
2.569603086E0,1.907982826E-1,-1.019965708E-1,2.015810013E-1,2.957062481E-1
2.574609961E0,1.800369024E-1,-1.940788180E-1,2.043704987E-1,3.344356060E-1
2.579616836E0,1.527346373E-1,-2.099910378E-1,1.929111481E-1,3.234792365E-1
2.584717669E0,1.683039665E-1,-1.550253332E-1,1.316957474E-1,2.640129712E-1
2.589724544E0,2.217476368E-1,-9.354948997E-2,2.823829651E-2,2.423240039E-1
2.594731419E0,2.579081059E-1,-2.555724978E-2,-5.532550812E-2,2.650107091E-1
2.599738294E0,2.625302076E-1,3.508707881E-2,-1.880559921E-1,3.248357573E-1
2.604745169E0,2.574584484E-1,4.822680354E-2,-2.769250870E-1,3.811799851E-1
2.609752044E0,2.188543081E-1,4.536867142E-2,-3.294181824E-1,3.980852464E-1
2.614841315E0,1.304435730E-1,5.959326029E-2,-2.603139877E-1,2.972040622E-1
2.619848190E0,6.846141815E-2,3.802001476E-2,-1.703567505E-1,1.874937592E-1
2.624855065E0,6.629705429E-3,-6.911069155E-3,-8.111858368E-2,8.168194714E-2
2.629861940E0,-3.580141068E-2,3.393569589E-2,-3.536605835E-2,6.069703901E-2
2.634868815E0,-1.632130146E-2,9.799084067E-2,3.379154205E-2,1.049307298E-1
2.639875690E0,4.818522930E-2,1.495772600E-1,5.723476410E-2,1.672453027E-1
2.644958971E0,5.070841312E-2,1.201249659E-1,4.480838776E-2,1.378736458E-1
2.649965846E0,1.245975494E-3,6.035271287E-2,2.768802643E-2,6.641256819E-2
2.654972721E0,3.090512753E-2,5.580246449E-2,8.296966553E-3,6.432636787E-2
2.659979596E0,1.032902002E-1,7.043278217E-2,-1.333618164E-2,1.257278649E-1
2.664986471E0,1.017447710E-1,9.067833424E-3,1.030540466E-2,1.026665739E-1
2.669993346E0,1.217538118E-1,-2.350252867E-2,1.473808289E-2,1.248742193E-1
2.675108138E0,1.488635540E-1,-3.486877680E-2,2.151393890E-2,1.543989601E-1
2.680115013E0,1.163282394E-1,-6.306168437E-2,4.493713379E-3,1.323979939E-1
2.685121888E0,1.100466251E-1,-8.421963453E-2,1.898765564E-3,1.385886426E-1
2.690128763E0,8.935296535E-2,-1.008007526E-1,1.361656189E-2,1.353889025E-1
2.695135638E0,7.332909107E-2,-1.295457184E-1,-1.272583008E-2,1.494027962E-1
2.700142513E0,9.059500694E-2,-1.202547252E-1,-1.032257080E-2,1.509145775E-1
2.705248867E0,1.125502586E-1,-1.373669803E-1,6.095123291E-2,1.877559607E-1
2.710255742E0,8.227992058E-2,-1.261815429E-1,9.670257568E-4,1.506409713E-1
2.715262617E0,2.611982822E-2,-8.201086521E-2,-4.187870026E-2,9.571756879E-2
2.720269492E0,7.975184917E-2,2.139240503E-2,-5.587387085E-2,9.969895628E-2
2.725276367E0,1.376430988E-1,8.869779110E-2,-7.213973999E-2,1.789331241E-1
2.730283242E0,8.558177948E-2,7.965603471E-2,-1.642761230E-1,2.016332548E-1
2.735373502E0,3.381443024E-2,1.093727350E-1,-1.582632065E-1,1.953280660E-1
2.740380377E0,5.836796761E-2,1.868882775E-1,-9.529590607E-2,2.177506777E-1
2.745387252E0,1.279531717E-1,2.167174220E-1,-1.279067993E-1,2.823094126E-1
2.750394127E0,2.061011791E-1,2.136030495E-1,-2.457532883E-1,3.853552095E-1
2.755401002E0,1.337842941E-1,8.481734991E-2,6.973838806E-2,1.730770435E-1
2.760407877E0,9.284639359E-2,9.114146233E-3,9.043216705E-2,1.299288163E-1
2.765511731E0,1.424714327E-1,-9.066551924E-3,9.195995331E-2,1.698144414E-1
2.770518606E0,1.890462637E-1,-1.757550240E-2,-4.665470123E-2,1.955097165E-1
2.775525481E0,1.184837818E-1,-4.525753856E-2,-3.203296661E-2,1.308157571E-1
2.780532356E0,5.769920349E-2,-5.390575528E-2,-3.411865234E-2,8.601808516E-2
2.785539231E0,6.135404110E-2,-5.535534024E-2,-4.804229736E-2,9.558553441E-2
2.790546106E0,4.829585552E-2,-6.427544355E-2,-1.431846619E-2,8.166297067E-2
2.795640377E0,3.079152107E-2,-7.812729478E-2,6.187534332E-2,1.043098752E-1
2.800647252E0,-2.462863922E-4,-9.929236770E-2,1.041269302E-1,1.438799935E-1
2.805654127E0,-1.631629467E-2,-9.206232429E-2,1.863756180E-1,2.085127430E-1
2.810661002E0,-1.263272762E-2,-9.928974509E-2,1.823587418E-1,2.080210326E-1
2.815667877E0,-2.277028561E-2,-6.147134304E-2,1.783332825E-1,1.899999252E-1
2.820674752E0,-1.578760147E-2,-3.820493817E-2,1.244106293E-1,1.310987046E-1
2.825771106E0,-8.364439011E-3,-5.545407534E-2,1.231451035E-1,1.353138382E-1
2.830777981E0,1.346421242E-2,-8.664137125E-2,1.527414322E-1,1.761191566E-1
2.835784856E0,6.703853607E-3,-7.485011220E-2,1.464509964E-1,1.646067292E-1
2.840791731E0,4.301369190E-2,-5.849879980E-2,1.330642700E-1,1.515862369E-1
2.845798606E0,4.323112965E-2,7.659345865E-3,1.031761169E-1,1.121289760E-1
2.850805481E0,1.119869947E-1,5.185893178E-2,1.656246185E-2,1.245180748E-1
2.855915638E0,1.562134027E-1,6.957185268E-2,-4.177093506E-4,1.710059776E-1
2.860922513E0,1.878484488E-1,5.629172921E-2,-6.235790253E-2,2.057773226E-1
2.865929388E0,1.547251940E-1,4.093739390E-2,-1.522588730E-1,2.209038711E-1
2.870936263E0,1.283885241E-1,2.590706944E-2,-2.152242661E-1,2.519449822E-1
2.875943138E0,8.751022816E-2,3.964194655E-2,-2.229795456E-1,2.427949788E-1
2.880950013E0,1.567924023E-2,-6.079763174E-3,-2.235031128E-1,2.241348780E-1
2.886044127E0,-5.602598190E-2,-8.554577827E-3,-2.453575134E-1,2.518181901E-1
2.891054023E0,-1.559519768E-1,-4.424750805E-2,-2.076091766E-1,2.634016539E-1
2.896063971E0,-2.220597863E-1,-5.347955227E-2,-1.677732468E-1,2.834051403E-1
2.901073867E0,-2.829872370E-1,-3.413659334E-2,-9.499835968E-2,3.004526113E-1
2.906083763E0,-3.193576336E-1,8.683353662E-3,8.026123047E-3,3.195764657E-1
2.911093659E0,-3.576027155E-1,7.729882002E-2,-6.230354309E-3,3.659147811E-1
2.916173190E0,-3.428649306E-1,8.122169971E-2,3.184986115E-2,3.537905296E-1
2.921183138E0,-3.064103127E-1,7.351088524E-2,4.342269897E-2,3.180827891E-1
2.926192981E0,-2.269268036E-1,5.660942197E-2,5.007743835E-2,2.391822541E-1
2.931202929E0,-1.357489824E-1,3.036603332E-2,8.038330078E-2,1.606591337E-1
2.936212825E0,-1.658583879E-1,-2.660316229E-2,1.792640686E-1,2.456671313E-1
2.941222721E0,-1.145299673E-1,-9.621918201E-3,1.941432953E-1,2.256131952E-1
2.946306784E0,-2.773582935E-2,6.715238094E-3,2.350273132E-1,2.367534765E-1
2.951316679E0,2.531814575E-2,1.290652156E-2,2.399358749E-1,2.416129361E-1
2.956326627E0,-5.300343037E-3,-4.953026772E-3,2.234449387E-1,2.235626684E-1
2.961336523E0,-9.515821934E-3,1.530820131E-2,2.118425369E-1,2.126079781E-1
2.966346419E0,3.619533777E-2,5.904203653E-2,8.156681061E-2,1.070009773E-1
2.971356315E0,8.861023188E-2,1.311042607E-1,-4.525184631E-2,1.645838083E-1
2.976438086E0,1.904247999E-1,1.793411076E-1,-1.639051437E-1,3.086903520E-1
2.981447981E0,1.913836598E-1,1.945216656E-1,-2.388143539E-1,3.626274663E-1
2.986457877E0,7.324463129E-2,1.626910567E-1,-2.608337402E-1,3.160180311E-1
2.991467825E0,-4.221194983E-2,1.007197499E-1,-2.351131439E-1,2.592383212E-1
2.996477721E0,-1.192271709E-1,7.533752918E-2,-2.190761566E-1,2.605479303E-1
3.001487617E0,-1.535769701E-1,1.714187860E-2,-1.365928650E-1,2.062458254E-1
3.006565221E0,-2.047014832E-1,4.522651434E-3,-1.355209351E-1,2.455383381E-1
3.011575117E0,-2.630603313E-1,3.478559852E-2,-1.439085007E-1,3.018616113E-1
3.016585013E0,-2.690916657E-1,2.442741394E-2,-9.517002106E-2,2.864687697E-1
3.021594961E0,-1.964847445E-1,-9.729325771E-3,-4.447650909E-2,2.016905414E-1
3.026604856E0,-1.429771781E-1,-8.412536979E-2,9.984970093E-4,1.658931834E-1
3.031614752E0,-1.178418398E-1,-1.653637588E-1,7.456016541E-2,2.163124828E-1
3.036686784E0,-1.304035187E-1,-2.276281863E-1,1.997509003E-1,3.297272980E-1
3.041696679E0,-1.518496275E-1,-2.306219339E-1,3.001194000E-1,4.078191266E-1
3.046706575E0,-1.321051717E-1,-2.058235854E-1,3.141031265E-1,3.980903149E-1
3.051716523E0,-7.874763012E-2,-1.179253757E-1,3.065776825E-1,3.377831536E-1
3.056726419E0,6.164908409E-4,-5.995926261E-2,2.444782257E-1,2.517242461E-1
3.061736315E0,-2.498763800E-2,-8.848193288E-2,1.638927460E-1,1.879209054E-1
3.066830429E0,-9.065812826E-2,-6.466436386E-2,6.972503662E-2,1.313847666E-1
3.071840377E0,-6.106573343E-2,4.245463014E-2,-6.877803802E-2,1.013007302E-1
3.076850273E0,-1.303792000E-3,1.394897401E-1,-1.585845947E-1,2.112064420E-1
3.081860221E0,3.019154072E-3,2.127745450E-1,-2.690267563E-1,3.430124165E-1
3.086870117E0,-1.427608728E-2,2.221276462E-1,-3.001747131E-1,3.736968775E-1
3.091880013E0,-3.639256954E-2,1.967161894E-1,-3.025789261E-1,3.627336279E-1
3.096964856E0,-5.620372295E-2,2.055945098E-1,-2.669677734E-1,3.416134555E-1
3.101974752E0,-1.044410467E-1,1.721707582E-1,-1.794080734E-1,2.696997572E-1
3.106984648E0,-1.287398934E-1,1.560924947E-1,-9.970283508E-2,2.255648075E-1
3.111994596E0,-1.386513710E-1,1.782943904E-1,1.259517670E-2,2.262116947E-1
3.117004492E0,-1.579496264E-1,1.289809644E-1,6.932067871E-2,2.153822884E-1
3.122014388E0,-1.697674990E-1,3.027319908E-2,6.378746033E-2,1.838649243E-1
3.127094388E0,-1.409915686E-1,-1.540547609E-2,1.058053970E-1,1.769483912E-1
3.132104284E0,-6.249392033E-2,-7.521989942E-2,1.593561172E-1,1.869703063E-1
3.137114179E0,-3.303647041E-3,-1.277988851E-1,2.195711136E-1,2.540766480E-1
3.142124127E0,4.610353708E-2,-1.400826275E-1,2.103996277E-1,2.569371168E-1
3.147134023E0,4.779821634E-2,-1.505661905E-1,2.084417343E-1,2.615392969E-1
3.152143919E0,4.710620642E-2,-1.617955863E-1,2.492961884E-1,3.009076203E-1
3.157221784E0,3.447777033E-2,-1.473582685E-1,2.209520340E-1,2.678114584E-1
3.162231679E0,1.465755701E-2,-1.335680485E-1,1.216163635E-1,1.812341232E-1
3.167241575E0,-2.958178520E-4,-8.457556367E-2,5.401039124E-2,1.003505647E-1
3.172251523E0,-3.393054008E-3,-6.709998846E-2,-1.538276672E-2,6.892423942E-2
3.177261419E0,-7.338935137E-2,-8.092060685E-2,-2.950954437E-2,1.131589798E-1
3.182271315E0,-1.572629213E-1,-5.894124508E-2,-4.587745667E-2,1.740989312E-1
3.187359961E0,-2.143980861E-1,-5.855870247E-2,-8.585357666E-2,2.382572089E-1
3.192369856E0,-2.472789884E-1,-7.221034169E-2,-8.749961853E-2,2.720614173E-1
3.197379752E0,-1.848692894E-1,-1.021088064E-1,-9.864521027E-2,2.330959888E-1
3.202389700E0,-1.132236719E-1,-1.292179823E-1,-9.785079956E-2,1.977161243E-1
3.207399596E0,-8.452087641E-2,-2.011849284E-1,-7.334613800E-2,2.302147040E-1
3.212409492E0,-1.272175908E-1,-2.037699670E-1,-3.954887390E-2,2.434555982E-1
3.217486575E0,-1.980441809E-1,-9.728944302E-2,-9.391784668E-2,2.398067873E-1
3.222496471E0,-2.593803406E-2,1.010105610E-1,-1.359615326E-1,1.713518409E-1
3.227506367E0,1.377389431E-1,1.909100711E-1,-2.014274597E-1,3.098252624E-1
3.232516315E0,7.919758558E-2,1.617641151E-1,-2.022371292E-1,2.708131144E-1
3.237526211E0,-2.868348360E-2,1.572753191E-1,-2.220802307E-1,2.736382596E-1
3.242536106E0,-9.959757328E-3,2.935312688E-1,-2.916517258E-1,4.139088447E-1
3.247629752E0,1.320188642E-1,3.936274648E-1,-2.632637024E-1,4.916089284E-1
3.252639648E0,1.918818355E-1,3.867224157E-1,-2.351331711E-1,4.915897413E-1
3.257649544E0,1.655369401E-1,3.354310095E-1,-1.597423553E-1,4.067358612E-1
3.262659492E0,1.345251799E-1,2.802957296E-1,-9.211730957E-2,3.242658150E-1
3.267669388E0,1.178429723E-1,1.971705556E-1,5.810165405E-2,2.369366926E-1
3.272679284E0,1.057555079E-1,1.001472771E-1,1.714773178E-1,2.249848330E-1
3.277751992E0,1.026809216E-2,-1.076629758E-2,3.195953369E-1,3.199414419E-1
3.282761888E0,-1.394406557E-1,-7.887089252E-2,4.237957001E-1,4.530641340E-1
3.287771784E0,-2.098319530E-1,-6.391301751E-2,3.086366653E-1,3.786435177E-1
3.292781679E0,-2.039400339E-1,-1.136296988E-2,2.016067505E-1,2.869946626E-1
3.297791575E0,-1.648569107E-1,1.222327352E-2,1.049728394E-1,1.958226402E-1
3.302801471E0,-1.547611356E-1,6.918111444E-2,-5.737018585E-2,1.789647281E-1
3.307900586E0,-1.302919388E-1,7.629165053E-2,-1.946487427E-1,2.463423193E-1
3.312910534E0,-1.032319069E-1,-4.035025835E-3,-1.669330597E-1,1.963154463E-1
3.317920429E0,-1.189082861E-1,-1.331982017E-1,-1.038551331E-1,2.065595074E-1
3.322930325E0,-1.770094037E-1,-1.617147923E-1,-4.131126404E-2,2.432912320E-1
3.327940221E0,-2.037399411E-1,-9.312301874E-2,-1.252174377E-2,2.243627739E-1
3.332950169E0,-2.091098428E-1,4.318711162E-2,-4.331016541E-2,2.178711165E-1
3.338040169E0,-1.217682362E-1,1.470243037E-1,-9.045124054E-2,2.112464819E-1
3.343050117E0,7.532298565E-3,1.406160593E-1,-1.134328842E-1,1.808220973E-1
3.348060013E0,-4.935175180E-2,-3.470867872E-3,-1.148624420E-1,1.250640752E-1
3.353069961E0,-4.144996405E-2,-1.057975888E-1,-8.541965485E-2,1.421539544E-1
3.358079804E0,1.153308153E-2,-1.265774071E-1,-3.959274292E-2,1.331256446E-1
3.363089752E0,5.206584930E-2,-1.261596382E-1,1.270341873E-1,1.864531891E-1
3.368162409E0,-7.399141788E-3,-1.740064621E-1,2.875452042E-1,3.361773945E-1
3.373172356E0,-8.800882101E-2,-1.722799540E-1,3.089942932E-1,3.645591973E-1
3.378182252E0,-1.850479841E-1,-2.070153654E-1,1.925640106E-1,3.379038563E-1
3.383192200E0,-2.463250160E-1,-1.849523485E-1,1.175708771E-1,3.297063783E-1
3.388202044E0,-2.718862295E-1,-1.061882675E-1,5.037307739E-2,2.962018178E-1
3.393211992E0,-2.714697123E-1,-1.681715250E-3,-7.563304901E-2,2.818137522E-1
3.398301367E0,-2.189879417E-1,3.582167625E-2,-2.053413391E-1,3.023309059E-1
3.403313711E0,-2.071499825E-1,9.760668874E-2,-2.532539368E-1,3.414318928E-1
3.408326054E0,-1.738817096E-1,1.122080684E-1,-3.388299942E-1,3.970280399E-1
3.413338398E0,-1.621267796E-1,1.583685577E-1,-2.930889130E-1,3.704953490E-1
3.418350742E0,-1.645303369E-1,1.545956135E-1,-2.097549438E-1,3.081674414E-1
3.423363086E0,-1.501834989E-1,1.605157554E-1,-1.793928146E-1,2.837290486E-1
3.428426679E0,-9.088313580E-2,9.052231908E-2,-1.896705627E-1,2.289737037E-1
3.433439023E0,-1.127279401E-1,-1.942962408E-2,-5.970764160E-2,1.290352713E-1
3.438451367E0,-8.673238754E-2,-1.170911193E-1,1.000652313E-1,1.767650638E-1
3.443463711E0,-1.809567213E-2,-1.573304534E-1,2.110071182E-1,2.638263233E-1
3.448476054E0,-3.813534975E-2,-1.599455178E-1,3.020744324E-1,3.439270798E-1
3.453488398E0,-1.175052524E-1,-1.583997905E-1,3.140306473E-1,3.708277571E-1
3.458572409E0,-1.845275164E-1,-1.311597526E-1,2.427816391E-1,3.319581439E-1
3.463584752E0,-2.513504028E-1,-9.700405598E-2,1.959133148E-1,3.331198565E-1
3.468597096E0,-2.396090031E-1,-8.183810115E-2,1.138200760E-1,2.776057616E-1
3.473609440E0,-2.755977511E-1,-4.972422123E-2,1.577186584E-2,2.804913018E-1
3.478621784E0,-2.924631238E-1,-1.468080282E-2,-1.259326935E-2,2.931020218E-1
3.483634127E0,-2.854583859E-1,3.952890635E-3,-2.649307251E-2,2.867123966E-1
3.488698346E0,-3.260203004E-1,-2.003076673E-2,1.909828186E-2,3.271929282E-1
3.493710690E0,-3.542549610E-1,6.260722876E-3,6.428909302E-2,3.600956283E-1
3.498723034E0,-3.131207228E-1,3.922808170E-2,7.108497620E-2,3.234756610E-1
3.503735377E0,-2.602602839E-1,5.981144309E-2,3.030776978E-2,2.687589720E-1
3.508747721E0,-1.743760109E-1,7.051405311E-2,-6.714916229E-2,1.997203917E-1
3.513760065E0,-9.364557266E-2,1.142252982E-1,-7.116889954E-2,1.639570806E-1
3.518817669E0,-6.796991825E-2,1.241893172E-1,-5.616569519E-2,1.523071949E-1
3.523830013E0,-1.065229177E-1,8.892562985E-2,-9.593582153E-2,1.686967146E-1
3.528842356E0,-2.544736862E-2,5.393329263E-2,-1.235408783E-1,1.371813298E-1
3.533854700E0,8.823370934E-2,9.534537792E-3,-9.152030945E-2,1.274835751E-1
3.538867044E0,1.655134559E-1,-8.488672972E-2,3.289031982E-2,1.888974169E-1
3.543879388E0,2.233704329E-1,-1.673476696E-1,1.253995895E-1,3.059814534E-1
3.548957877E0,2.402343154E-1,-2.168947756E-1,2.718391418E-1,4.226729102E-1
3.553970221E0,2.640523911E-1,-2.696817517E-1,3.387365341E-1,5.071433249E-1
3.558982565E0,2.613069415E-1,-3.091638684E-1,3.291530609E-1,5.217330282E-1
3.563994909E0,1.343432665E-1,-3.469453156E-1,2.936372757E-1,4.739641494E-1
3.569007252E0,5.986893177E-2,-3.210981488E-1,1.540155411E-1,3.611219975E-1
3.574019596E0,-2.655130625E-2,-2.527834475E-1,6.789016724E-2,2.630846214E-1
3.579075221E0,-1.148784161E-1,-1.682892740E-1,1.576042175E-2,2.043690806E-1
3.584087565E0,-1.930751801E-1,-1.216640472E-1,-1.001052856E-1,2.492011913E-1
3.589099909E0,-3.227716684E-1,-3.630781174E-2,-4.403305054E-2,3.277784567E-1
3.594112252E0,-3.844524920E-1,3.271532059E-2,-2.890300751E-2,3.869229828E-1
3.599124596E0,-3.975314498E-1,1.639809012E-1,-1.400756836E-2,4.302524858E-1
3.604136940E0,-3.978864551E-1,2.951964140E-1,4.102325439E-2,4.971292200E-1
3.609216784E0,-4.189176559E-1,4.050249457E-1,9.309577942E-2,5.900881572E-1
3.614229127E0,-3.560627699E-1,4.795316458E-1,2.821159363E-2,5.979357737E-1
3.619241471E0,-3.311293125E-1,5.284897685E-1,-5.288410187E-2,6.258951871E-1
3.624253815E0,-2.915791273E-1,5.210564733E-1,-1.167869568E-1,6.084056452E-1
3.629266159E0,-2.280741334E-1,4.957481027E-1,-1.921434402E-1,5.785352999E-1
3.634278502E0,-8.616429567E-2,4.194377065E-1,-1.672096252E-1,4.596861258E-1
3.639348659E0,-5.430132151E-2,2.825382352E-1,-1.164169312E-1,3.103697629E-1
3.644361002E0,-2.726262808E-2,1.967994571E-1,-2.806472778E-2,2.006512052E-1
3.649373346E0,-5.290848017E-2,9.946972132E-2,6.909942627E-2,1.321675582E-1
3.654385690E0,-2.420192957E-2,-2.413833141E-2,1.085424423E-1,1.137974263E-1
3.659398034E0,-1.036405563E-3,-8.818259835E-2,6.461048126E-2,1.093241011E-1
3.664410377E0,-3.115051985E-2,-1.813944876E-1,6.632041931E-2,1.956341306E-1
3.669482356E0,-9.968793392E-2,-2.724454701E-1,1.821556091E-1,3.425563958E-1
3.674494700E0,-1.495426893E-1,-2.924382985E-1,1.071147919E-1,3.454804669E-1
3.679507044E0,-2.353486419E-1,-2.894795537E-1,-3.607177734E-2,3.748180470E-1
3.684519388E0,-3.094964623E-1,-2.607204318E-1,-1.874704361E-1,4.459914441E-1
3.689531731E0,-3.860889673E-1,-1.657149792E-1,-2.353982925E-1,4.815999389E-1
3.694544075E0,-4.672682881E-1,-7.623827457E-2,-2.377510071E-1,5.297900235E-1
3.699615377E0,-4.668847919E-1,-1.371324062E-3,-1.736001968E-1,4.981167712E-1
3.704627721E0,-4.471974075E-1,9.726440907E-2,-8.866786957E-2,4.661629303E-1
3.709640065E0,-3.792692125E-1,1.361845732E-1,5.721664429E-2,4.070198004E-1
3.714652409E0,-4.652223587E-1,1.107824445E-1,1.661491394E-1,5.062708066E-1
3.719664752E0,-6.258620024E-1,1.451959014E-1,1.909637451E-1,6.702628199E-1
3.724677096E0,-7.586820722E-1,2.410517335E-1,2.179193497E-1,8.253443329E-1
3.729749648E0,-6.858347058E-1,3.028898239E-1,2.018661499E-1,7.764415185E-1
3.734761992E0,-5.775296092E-1,3.434302807E-1,7.422542572E-2,6.760134770E-1
3.739774336E0,-5.123511553E-1,2.964880466E-1,-2.155780792E-2,5.923458510E-1
3.744786679E0,-4.351684451E-1,1.986105442E-1,-5.963897705E-2,4.820524157E-1
3.749799023E0,-4.556179643E-1,1.329563856E-1,-5.233097076E-2,4.774972883E-1
3.754811367E0,-4.377877414E-1,1.440255046E-1,-1.659393311E-2,4.611689616E-1
3.759890742E0,-3.441033661E-1,1.429374814E-1,5.211639404E-2,3.762371177E-1
3.764903086E0,-2.226116657E-1,9.626775980E-2,9.652042389E-2,2.610356825E-1
3.769915429E0,-1.426227093E-1,-5.163908005E-3,1.714763641E-1,2.230964962E-1
3.774927773E0,-9.902143478E-2,-6.585273147E-2,1.935806274E-1,2.271899780E-1
3.779940117E0,-1.154304147E-1,-1.359522343E-1,1.300277710E-1,2.207134157E-1
3.784952461E0,-1.392463446E-1,-1.655972600E-1,6.469154358E-2,2.258251377E-1
3.790024700E0,-2.039744854E-1,-1.620910764E-1,-1.427555084E-2,2.609269995E-1
3.795037044E0,-2.596583962E-1,-1.849930286E-1,-4.260540009E-2,3.216521778E-1
3.800049388E0,-3.201072514E-1,-2.507583499E-1,6.951141357E-2,4.125290766E-1
3.805061731E0,-4.566689134E-1,-2.165770233E-1,4.773235321E-2,5.076716271E-1
3.810074075E0,-5.949666500E-1,-1.543370187E-1,5.468845367E-2,6.170867499E-1
3.815086419E0,-4.921516180E-1,-4.512912035E-2,4.495716095E-2,4.962569888E-1
3.820144961E0,-4.043076932E-1,4.684042931E-2,2.340030670E-2,4.076840823E-1
3.825157304E0,-4.476153851E-1,1.931166649E-2,2.100658417E-2,4.485239681E-1
3.830169648E0,-5.019192696E-1,2.557605505E-2,9.073257446E-3,5.026523766E-1
3.835181992E0,-5.508582592E-1,2.935224771E-2,-5.740737915E-2,5.546187730E-1
3.840194336E0,-6.113678813E-1,4.021888971E-2,-1.185760498E-1,6.240581102E-1
3.845206679E0,-6.476609111E-1,2.237236500E-2,-1.958522797E-1,6.769957857E-1
3.850279909E0,-6.410612464E-1,-5.100905895E-3,-2.201967239E-1,6.778437417E-1
3.855292252E0,-6.108964086E-1,-1.591795683E-2,-1.968050003E-1,6.420124699E-1
3.860304596E0,-6.497731209E-1,4.204219580E-2,-2.044868469E-1,6.824862822E-1
3.865316940E0,-6.693397760E-1,3.059965372E-2,-2.025995255E-1,6.999990302E-1
3.870329284E0,-6.029807329E-1,2.892839909E-2,-1.413669586E-1,6.200058335E-1
3.875341627E0,-5.203452706E-1,5.351221561E-2,-5.215930939E-2,5.256836990E-1
3.880409492E0,-3.882504404E-1,5.674606562E-2,4.102325439E-2,3.945141668E-1
3.885421836E0,-3.257764578E-1,2.463746071E-2,1.713914871E-1,3.689340683E-1
3.890434179E0,-3.085446954E-1,-1.195532084E-2,3.148965836E-1,4.410245085E-1
3.895446523E0,-2.957357466E-1,-2.909213305E-2,4.120273590E-1,5.080083942E-1
3.900458867E0,-2.710429132E-1,-4.398161173E-2,4.299640656E-1,5.101644251E-1
3.905471211E0,-2.703048587E-1,-4.491645098E-2,4.192705154E-1,5.008692138E-1
3.910546054E0,-3.148116171E-1,-3.247320652E-3,3.302907944E-1,4.562991434E-1
3.915560325E0,-3.378179967E-1,6.916874647E-2,1.802940369E-1,3.891159906E-1
3.920574648E0,-3.228471577E-1,1.365067363E-1,1.966953278E-2,3.510715978E-1
3.925588919E0,-2.202748060E-1,2.083594203E-1,-1.111183167E-1,3.229271102E-1
3.930603190E0,-1.328173876E-1,2.848377228E-1,-2.052097321E-1,3.753452023E-1
3.935617461E0,-1.056758761E-1,2.639962435E-1,-3.650617599E-1,4.627434451E-1
3.940676679E0,-1.647945642E-1,1.752679348E-1,-4.760847092E-1,5.334161112E-1
3.945690950E0,-1.668007970E-1,1.330568194E-1,-5.481872559E-1,5.882481539E-1
3.950705273E0,-2.097463310E-1,1.011683345E-1,-5.721645355E-1,6.177384649E-1
3.955719544E0,-2.479895055E-1,3.421461582E-2,-4.961605072E-1,5.557379632E-1
3.960733815E0,-3.290890753E-1,-4.880738258E-2,-3.803739548E-1,5.053376352E-1
3.965748086E0,-3.791556954E-1,-1.835962534E-1,-1.942367554E-1,4.638906582E-1
3.970809752E0,-3.909330368E-1,-2.370885313E-1,3.077793121E-2,4.582432672E-1
3.975824023E0,-3.977341950E-1,-3.313578963E-1,2.515830994E-1,5.755732805E-1
3.980838346E0,-4.183846414E-1,-3.759197891E-1,4.064426422E-1,6.939430938E-1
3.985852617E0,-4.431087375E-1,-4.045538306E-1,5.576620102E-1,8.191434995E-1
3.990866888E0,-4.123836160E-1,-4.032408595E-1,6.648874283E-1,8.801924391E-1
3.995881159E0,-4.003616869E-1,-3.509592414E-1,6.809835434E-1,8.644075751E-1
4.000950950E0,-3.286373615E-1,-2.670556009E-1,6.922349930E-1,8.114865956E-1
4.005965221E0,-2.593026161E-1,-1.085761189E-1,6.273803711E-1,6.874829091E-1
4.010979544E0,-2.185197771E-1,5.294924974E-2,4.989156723E-1,5.472397684E-1
4.015993815E0,-2.038858831E-1,1.466999054E-1,2.978553772E-1,3.896256425E-1
4.021008086E0,-2.130637467E-1,2.165169120E-1,6.517791748E-2,3.106829481E-1
4.026022356E0,-2.172995806E-1,2.816607356E-1,-8.008670807E-2,3.646447017E-1
4.031072356E0,-2.405472994E-1,3.283724785E-1,-2.337055206E-1,4.693716632E-1
4.036086627E0,-3.305375576E-1,3.782311082E-1,-3.623304367E-1,6.193522371E-1
4.041100950E0,-3.893155158E-1,4.717857242E-1,-4.875621796E-1,7.822181405E-1
4.046115221E0,-4.575736523E-1,5.065198541E-1,-5.690441132E-1,8.886772263E-1
4.051129492E0,-5.161762238E-1,4.947480559E-1,-6.142692566E-1,9.426241310E-1
4.056143763E0,-5.366380811E-1,4.367461801E-1,-6.045312881E-1,9.187958066E-1
4.061207981E0,-5.571447611E-1,3.231290579E-1,-4.808940887E-1,8.037921357E-1
4.066222252E0,-5.467278957E-1,2.013148665E-1,-3.345441818E-1,6.718324769E-1
4.071236575E0,-5.719650388E-1,5.209749937E-2,-1.466636658E-1,5.927633473E-1
4.076250846E0,-5.827248693E-1,-5.111783743E-2,6.416320801E-3,5.849978425E-1
4.081265117E0,-5.626353025E-1,-9.014308453E-2,1.297740936E-1,5.844018949E-1
4.086279388E0,-5.452825427E-1,-1.439890265E-1,2.094125748E-1,6.015974714E-1
4.091344909E0,-5.997192860E-1,-1.838434935E-1,2.480716705E-1,6.745377719E-1
4.096359179E0,-5.827143788E-1,-1.814127564E-1,2.318372726E-1,6.528515578E-1
4.101373502E0,-5.068581700E-1,-1.844458282E-1,1.587924957E-1,5.622637502E-1
4.106387773E0,-4.488136768E-1,-2.472757697E-1,1.006698608E-1,5.222197274E-1
4.111402044E0,-3.276219070E-1,-2.267068923E-1,1.694869995E-2,3.987723503E-1
4.116416315E0,-1.583757401E-1,-2.113775909E-1,-5.412578583E-2,2.696163231E-1
4.121473919E0,1.348406076E-2,-1.704599559E-1,-3.664016724E-2,1.748740070E-1
4.126488190E0,1.338574886E-1,-1.303836405E-1,6.873130798E-3,1.869892000E-1
4.131502513E0,1.390594244E-1,-1.028943956E-1,1.205158234E-2,1.734070956E-1
4.136516784E0,1.343992352E-1,-2.130055428E-2,-3.265571594E-2,1.399402152E-1
4.141531054E0,9.388965368E-2,1.701116562E-4,-3.420639038E-2,9.992683898E-2
4.146545325E0,9.636807442E-2,7.858544588E-2,-2.861118317E-2,1.275973271E-1
4.151611523E0,1.341822743E-1,9.255319834E-2,-3.018760681E-2,1.657777695E-1
4.156625794E0,2.168871164E-1,8.788341284E-2,-5.553531647E-2,2.405154608E-1
4.161640117E0,3.013823032E-1,9.306544065E-2,-1.020717621E-1,3.315284506E-1
4.166654388E0,3.188564777E-1,9.635722637E-2,-5.799007416E-2,3.381079963E-1
4.171668659E0,2.960568070E-1,5.232185125E-2,-3.330707550E-2,3.024840002E-1
4.176682929E0,2.425720096E-1,1.350086927E-2,5.293464661E-2,2.486474012E-1
4.181739648E0,2.275406718E-1,-2.282869816E-2,1.384754181E-1,2.673412580E-1
4.186753919E0,2.294675112E-1,-4.470068216E-2,1.947927475E-1,3.042987088E-1
4.191768242E0,2.505402565E-1,-4.026311636E-2,2.696380615E-1,3.702650711E-1
4.196782513E0,2.551665306E-1,1.614463329E-2,3.224735260E-1,4.115334525E-1
4.201796784E0,1.837812066E-1,3.402978182E-2,2.774734497E-1,3.345520486E-1
4.206811054E0,1.032254100E-1,-1.221430302E-2,1.639719009E-1,1.941428823E-1
4.211890065E0,9.664708376E-2,-2.466446161E-2,1.725893021E-1,1.993390620E-1
4.216904336E0,1.661030054E-1,3.441989422E-3,2.143936157E-1,2.712317794E-1
4.221918659E0,1.803419590E-1,-3.520047665E-2,2.606067657E-1,3.188701649E-1
4.226932929E0,1.945616007E-1,-3.793519735E-2,2.945556641E-1,3.550441309E-1
4.231947200E0,1.825695038E-1,-1.121035218E-1,2.640943527E-1,3.400656561E-1
4.236961471E0,1.326127052E-1,-1.524433792E-1,2.053928375E-1,2.881168706E-1
4.242010794E0,5.189222097E-2,-1.522293389E-1,1.044588089E-1,1.917764766E-1
4.247025117E0,-4.506045580E-2,-1.828826964E-1,-4.311847687E-2,1.932245542E-1
4.252039388E0,-9.153521061E-2,-2.322194874E-1,-1.538162231E-1,2.931962067E-1
4.257053659E0,-1.330774426E-1,-2.479902804E-1,-2.588119507E-1,3.823511615E-1
4.262067929E0,-1.341527104E-1,-2.233393788E-1,-3.652763367E-1,4.486693994E-1
4.267082200E0,-5.229264498E-2,-1.299328208E-1,-4.732112885E-1,4.935037813E-1
4.272146315E0,-1.854944229E-2,-6.414175034E-3,-5.303621292E-1,5.307251752E-1
4.277160586E0,-6.791579723E-2,5.176347494E-2,-4.944028854E-1,5.017232564E-1
4.282174909E0,-1.118649244E-1,1.022372246E-1,-3.993654251E-1,4.271521441E-1
4.287189179E0,-1.144577861E-1,1.449813247E-1,-3.312883377E-1,3.793048009E-1
4.292203450E0,-1.450405717E-1,1.562622786E-1,-2.020397186E-1,2.937255778E-1
4.297217721E0,3.325581551E-3,1.365200281E-1,-4.540252686E-2,1.439102742E-1
4.302272304E0,-2.271200418E-1,1.525045633E-1,-1.597785950E-2,2.740373099E-1
4.307286575E0,-4.749107957E-1,1.421929002E-1,-1.527786255E-2,4.959763077E-1
4.312300898E0,-4.098539352E-1,1.891528964E-1,1.232242584E-1,4.679137573E-1
4.317315169E0,-2.717128396E-1,2.242763042E-1,1.964082718E-1,4.033657609E-1
4.322329440E0,-9.889900684E-2,2.289162874E-1,2.499179840E-1,3.530477006E-1
4.327343711E0,1.207233667E-1,2.010654211E-1,2.981138229E-1,3.793063225E-1
4.332403398E0,2.419827580E-1,1.361960173E-1,3.410301208E-1,4.397801196E-1
4.337417669E0,2.466957569E-1,1.050156355E-2,4.191207886E-1,4.864476485E-1
4.342431992E0,2.285407782E-1,-9.007257223E-2,5.154600143E-1,5.710017355E-1
4.347446263E0,2.375310659E-1,-1.920547485E-1,4.992599487E-1,5.852918333E-1
4.352460534E0,2.066126466E-1,-1.911637187E-1,3.952589035E-1,4.852442209E-1
4.357474804E0,1.454857588E-1,-1.214914918E-1,2.635860443E-1,3.246596546E-1
4.362535325E0,1.924693584E-3,-1.214271784E-2,9.261703491E-2,9.342946643E-2
4.367549596E0,-1.335895658E-1,5.566257238E-2,-8.638858795E-2,1.685451933E-1
4.372563919E0,-2.900303602E-1,1.346812248E-1,-2.281999588E-1,3.928509429E-1
4.377578190E0,-3.413231373E-1,1.939939260E-1,-3.331317902E-1,5.148901990E-1
4.382592461E0,-3.664715886E-1,1.100204587E-1,-3.729944229E-1,5.343507894E-1
4.387606731E0,-3.157648444E-1,-4.069924355E-3,-3.697366714E-1,4.862398662E-1
4.392671888E0,-3.181918263E-1,-3.161513805E-2,-3.926010132E-1,5.063409038E-1
4.397686159E0,-2.349504828E-1,-2.061682940E-2,-3.392877579E-1,4.132105585E-1
4.402700481E0,-1.973297000E-1,9.552598000E-3,-2.603225708E-1,3.267997912E-1
4.407714752E0,-1.384444237E-1,4.893553257E-2,-1.867828369E-1,2.375907678E-1
4.412729023E0,-8.463513851E-2,1.212339997E-1,-1.043672562E-1,1.809787654E-1
4.417743294E0,-1.206278801E-2,2.026910782E-1,-8.206272125E-2,2.190056489E-1
4.422801106E0,3.639119864E-2,2.362396121E-1,-7.721900940E-3,2.391507922E-1
4.427816992E0,8.705294132E-2,2.675071359E-1,1.369094849E-2,2.816482281E-1
4.432832825E0,1.300792098E-1,2.754076719E-1,1.589012146E-2,3.049958730E-1
4.437848711E0,1.681612134E-1,2.768777609E-1,2.275848389E-2,3.247421081E-1
4.442864544E0,1.536848545E-1,2.386991382E-1,6.990528107E-2,2.923748645E-1
4.447880429E0,8.931207657E-2,2.156798840E-1,1.142616272E-1,2.599041724E-1
4.452959023E0,5.624485016E-2,1.840339303E-1,1.392135620E-1,2.375129186E-1
4.457974856E0,9.123086929E-3,1.456523538E-1,2.019681931E-1,2.491766239E-1
4.462990690E0,1.957678795E-2,1.004465222E-1,2.380580902E-1,2.591223818E-1
4.468006575E0,1.597464085E-3,-1.559996605E-2,2.239465714E-1,2.244949390E-1
4.473022409E0,-9.135603905E-3,-9.290516376E-2,2.052221298E-1,2.254572050E-1
4.478038242E0,-6.716841459E-2,-7.245051861E-2,1.605300903E-1,1.884955794E-1
4.483084700E0,-5.322909355E-2,-1.142898500E-1,1.423473358E-1,1.901532809E-1
4.488100586E0,-4.863280058E-2,-1.539151073E-1,8.393764496E-2,1.819355319E-1
4.493116419E0,-5.800354481E-2,-1.628648043E-1,4.739856720E-2,1.792651105E-1
4.498132304E0,-8.855879307E-2,-1.675255895E-1,-1.019477844E-2,1.897667422E-1
4.503148086E0,-5.954343081E-2,-7.769247890E-2,-9.102249146E-2,1.336661340E-1
4.508163971E0,-1.568099856E-1,-1.912824512E-1,-9.985351562E-2,2.667378344E-1
4.513203502E0,-1.941179633E-1,-2.760676444E-1,-9.904956818E-2,3.517185592E-1
4.518219388E0,-2.052304745E-1,-3.085789382E-1,-7.205963135E-2,3.775355602E-1
4.523235221E0,-1.547242403E-1,-3.367750049E-1,-4.285526276E-2,3.730865422E-1
4.528251106E0,-1.522440314E-1,-3.531317115E-1,2.413654327E-2,3.853087379E-1
4.533266888E0,-1.333019733E-1,-3.484522700E-1,1.262435913E-1,3.938601845E-1
4.538282773E0,-1.263811588E-1,-3.467290998E-1,2.299032211E-1,4.347973747E-1
4.543338242E0,-1.267565489E-1,-3.194774389E-1,3.018598557E-1,4.574411756E-1
4.548354075E0,-1.106961370E-1,-3.002904952E-1,3.352661133E-1,4.634990647E-1
4.553369909E0,-4.508513212E-2,-2.866460383E-1,3.494424820E-1,4.542121406E-1
4.558385794E0,-5.148613453E-2,-3.189908266E-1,4.300756454E-1,5.379321800E-1
4.563401575E0,1.153406501E-1,-6.164833903E-2,3.319168091E-1,3.567530678E-1
4.568417461E0,1.383188367E-1,2.453541756E-2,2.440929413E-1,2.816299900E-1
4.573468346E0,1.112731099E-1,1.940703392E-2,9.525299072E-2,1.477547637E-1
4.578484231E0,1.250278950E-1,8.083570004E-2,-4.850387573E-3,1.489627846E-1
4.583500065E0,8.394807577E-2,1.395496130E-1,-1.682586670E-1,2.341630905E-1
4.588515898E0,8.584868908E-2,2.172943354E-1,-3.350706100E-1,4.084839523E-1
4.593531731E0,1.753036380E-1,2.878788710E-1,-5.076198578E-1,6.093303947E-1
4.598547617E0,1.946101785E-1,2.781044245E-1,-6.003446579E-1,6.896585392E-1
4.603610273E0,1.208642125E-1,2.621340752E-1,-5.806684494E-1,6.484583868E-1
4.608626159E0,5.033671856E-2,2.449568510E-1,-4.947242737E-1,5.543372178E-1
4.613641992E0,-3.593993187E-2,2.167682052E-1,-3.668060303E-1,4.275825035E-1
4.618657825E0,-7.366567850E-2,2.487030625E-1,-2.542686462E-1,3.632249853E-1
4.623673659E0,-6.087958813E-2,2.193299532E-1,-1.023588181E-1,2.495782047E-1
4.628689544E0,-2.502322197E-3,1.358317733E-1,5.058956146E-2,1.449683965E-1
4.633730690E0,7.272660732E-2,1.287519932E-2,1.998052597E-1,2.130189475E-1
4.638746575E0,1.507372856E-1,-1.161868572E-1,3.951854706E-1,4.386258898E-1
4.643762409E0,1.789731383E-1,-2.279889286E-1,5.770130157E-1,6.457200292E-1
4.648778294E0,1.341429949E-1,-2.588402033E-1,7.121534348E-1,7.695161522E-1
4.653794075E0,1.617071629E-1,-3.304542303E-1,6.964712143E-1,7.876683040E-1
4.658809961E0,1.587174535E-1,-3.308053613E-1,6.262655258E-1,7.258318854E-1
4.663878554E0,1.228829026E-1,-3.079082072E-1,5.043745041E-1,6.035737835E-1
4.668894388E0,1.299007535E-1,-2.783473134E-1,2.980155945E-1,4.279774844E-1
4.673910221E0,1.460090280E-1,-2.470867038E-1,1.670799255E-1,3.320936268E-1
4.678926054E0,1.358527541E-1,-1.882019341E-1,4.439830780E-2,2.363200130E-1
4.683941888E0,1.375098825E-1,-9.935030341E-2,-1.033525467E-1,1.986484318E-1
4.688957773E0,1.058566570E-1,-1.389318705E-2,-2.142171860E-1,2.393483972E-1
4.694013138E0,3.373980522E-2,7.309824228E-2,-3.027343750E-1,3.132568104E-1
4.699029023E0,-3.088372946E-2,1.427791715E-1,-3.999958038E-1,4.258360478E-1
4.704044856E0,-1.072360277E-1,2.124962211E-1,-4.869403839E-1,5.420010582E-1
4.709060690E0,-1.236851811E-1,2.990179062E-1,-5.898227692E-1,6.727559968E-1
4.714076523E0,-6.677556038E-2,4.075039029E-1,-6.610040665E-1,7.793874404E-1
4.719092409E0,4.620122910E-2,4.571564794E-1,-6.532421112E-1,7.986562815E-1
4.724134752E0,1.055569649E-1,4.316909909E-1,-5.648183823E-1,7.186926947E-1
4.729150638E0,7.858055830E-2,3.674465418E-1,-4.368019104E-1,5.761838024E-1
4.734166471E0,1.371415257E-1,2.785348296E-1,-2.908849716E-1,4.254450800E-1
4.739182304E0,1.928541660E-1,2.146611214E-1,-8.445453644E-2,3.006737353E-1
4.744198138E0,2.457481623E-1,1.132237911E-1,1.131353378E-1,2.932769865E-1
4.749214075E0,3.028212786E-1,-2.836060524E-2,3.210067749E-1,4.422108097E-1
4.754266679E0,2.308393717E-1,-1.695395708E-1,4.013204575E-1,4.930401517E-1
4.759282565E0,2.257832885E-1,-2.156044543E-1,3.812770844E-1,4.927835114E-1
4.764298398E0,2.275961041E-1,-2.074957788E-1,3.258495331E-1,4.483663715E-1
4.769314231E0,1.985345483E-1,-1.907179058E-1,3.231878281E-1,4.245464152E-1
4.774330065E0,1.859560609E-1,-1.817705035E-1,2.493543625E-1,3.602745767E-1
4.779345950E0,9.705907106E-2,-1.543757915E-1,1.524505615E-1,2.376836595E-1
4.784395950E0,-1.496970654E-2,-1.084167063E-1,6.112861633E-2,1.253594115E-1
4.789411836E0,-1.283544302E-1,-6.294244528E-2,-5.679130554E-3,1.430694366E-1
4.794427669E0,-2.026544809E-1,-9.190440178E-4,-1.075944901E-1,2.294477230E-1
4.799443502E0,-2.334656715E-1,3.752994537E-2,-1.944580078E-1,3.061513243E-1
4.804459336E0,-2.470742464E-1,9.060949087E-2,-2.355346680E-1,3.531746634E-1
4.809475221E0,-2.507930398E-1,1.417083144E-1,-2.478370667E-1,3.800021142E-1
4.814528138E0,-2.405750751E-1,1.883680820E-1,-3.360643387E-1,4.542005514E-1
4.819544023E0,-2.638469338E-1,2.545419931E-1,-2.668075562E-1,4.534237563E-1
4.824559856E0,-3.033486605E-1,2.593184710E-1,-1.791963577E-1,4.374675003E-1
4.829575690E0,-2.543001771E-1,3.146738410E-1,-1.113929749E-1,4.196386554E-1
4.834591523E0,-1.364802718E-1,3.248296380E-1,-7.033443451E-2,3.592883118E-1
4.839607409E0,4.000788927E-2,3.255484104E-1,-9.379100800E-2,3.411438874E-1
4.844665221E0,9.667968750E-2,2.143678069E-1,-3.631019592E-2,2.379473659E-1
4.849681106E0,1.271335483E-1,1.630019546E-1,9.907627106E-2,2.292349968E-1
4.854696940E0,1.652039886E-1,4.014283419E-2,9.314346313E-2,1.938543518E-1
4.859712773E0,1.821144819E-1,-8.689212799E-2,-5.413055420E-3,2.018544713E-1
4.864728606E0,1.637271643E-1,-2.153159380E-1,-6.280517578E-2,2.776905248E-1
4.869744492E0,2.073602080E-1,-3.069330156E-1,-1.624917984E-1,4.044869794E-1
4.874793919E0,2.030179501E-1,-3.882897496E-1,-2.613344193E-1,5.101773186E-1
4.879809804E0,1.842179894E-1,-3.883984387E-1,-3.624343872E-2,4.313968030E-1
4.884825638E0,2.439455986E-1,-3.296453953E-1,2.416419983E-1,4.759899128E-1
4.889841471E0,3.552750349E-1,-2.913005352E-1,3.248577118E-1,5.626800913E-1
4.894857304E0,5.294472575E-1,-2.496453673E-1,3.053274155E-1,6.601984842E-1
4.899873190E0,5.022639036E-1,-1.975501180E-1,5.212287903E-1,7.503162865E-1
4.904934388E0,4.632196426E-1,-1.446919739E-1,5.263633728E-1,7.159375705E-1
4.909950273E0,4.695125222E-1,-1.027766764E-1,5.291433334E-1,7.148410460E-1
4.914966106E0,5.254867673E-1,-9.627729654E-3,4.345531464E-1,6.819570901E-1
4.919981940E0,5.878753662E-1,6.324791908E-2,2.362775803E-1,6.367298017E-1
4.924997773E0,5.829393268E-1,1.025276780E-1,7.530307770E-2,5.966579732E-1
4.930013659E0,5.277623534E-1,1.325113177E-1,-1.104459763E-1,5.552392860E-1
4.935058502E0,3.752451539E-1,8.453625441E-2,-1.806154251E-1,4.249438029E-1
4.940075638E0,2.619223595E-1,7.815736532E-2,-1.789674759E-1,3.267127998E-1
4.945092721E0,2.796833515E-1,9.398311377E-2,-2.129545212E-1,3.638752958E-1
4.950109856E0,2.397141457E-1,9.341055155E-2,-1.278419495E-1,2.872837740E-1
4.955126940E0,1.950765848E-1,5.032569170E-2,-9.331035614E-2,2.220233586E-1
4.960144023E0,1.388871670E-1,-2.091777325E-2,-6.143474579E-2,1.533017494E-1
4.965197044E0,1.259012222E-1,-7.745158672E-2,-7.257461548E-2,1.646722225E-1
4.970214179E0,1.200522184E-1,-1.316890419E-1,-1.382179260E-1,2.255188107E-1
4.975231263E0,7.123649120E-2,-1.716927588E-1,-2.103891373E-1,2.807429967E-1
4.980248398E0,3.769516945E-3,-1.950394511E-1,-2.154207230E-1,2.906212047E-1
4.985265481E0,1.282238960E-2,-2.091386914E-1,-2.583885193E-1,3.326680520E-1
4.990282565E0,5.011439323E-3,-1.735849679E-1,-2.296953201E-1,2.879527664E-1
4.995325586E0,5.178439617E-2,-7.693648338E-2,-2.035846710E-1,2.237131298E-1
5.000342721E0,8.872270584E-2,2.338117361E-2,-1.634273529E-1,1.874217103E-1
5.005359804E0,8.754098415E-2,7.790535688E-2,-1.093797684E-1,1.603015978E-1
5.010376940E0,1.628082991E-1,1.014902592E-1,-1.366157532E-1,2.355221411E-1
5.015394023E0,2.023813725E-1,9.219545126E-2,-1.233320236E-1,2.543010208E-1
5.020411106E0,1.804643869E-1,6.700313091E-2,-5.086994171E-2,1.991094309E-1
5.025460117E0,2.255871296E-1,-5.050063133E-3,6.368827820E-2,2.344594911E-1
5.030477252E0,2.775527239E-1,-7.111907005E-3,2.366428375E-1,3.648094383E-1
5.035494336E0,2.482945919E-1,4.427433014E-4,3.582677841E-1,4.358970125E-1
5.040511471E0,1.838804483E-1,1.728093624E-2,5.073680878E-1,5.399379840E-1
5.045528554E0,2.057528496E-1,2.654713392E-2,5.506944656E-1,5.884754710E-1
5.050545638E0,1.944217682E-1,6.144696474E-2,4.653768539E-1,5.080857896E-1
5.055596784E0,2.595055103E-1,1.078432202E-1,4.068727493E-1,4.944883256E-1
5.060613919E0,2.910437584E-1,1.706987023E-1,2.276649475E-1,4.070329773E-1
5.065631002E0,3.011028767E-1,1.954713464E-1,-2.353668213E-3,3.589951662E-1
5.070648138E0,2.971493006E-1,2.205274105E-1,-1.497497559E-1,3.991929796E-1
5.075665221E0,3.193734884E-1,1.629276872E-1,-2.935810089E-1,4.633947185E-1
5.080682304E0,2.795672417E-1,1.324628592E-1,-4.647407532E-1,5.582904435E-1
5.085726731E0,2.093390226E-1,5.744993687E-2,-3.898267746E-1,4.461930477E-1
5.090743867E0,2.132430077E-1,2.128893137E-2,-4.485673904E-1,4.971302673E-1
5.095760950E0,2.263284922E-1,-4.534417391E-2,-4.260234833E-1,4.845376031E-1
5.100778086E0,2.105566263E-1,-4.736939073E-2,-3.798809052E-1,4.369066882E-1
5.105795169E0,2.231291533E-1,-5.431902409E-2,-3.340797424E-1,4.053966573E-1
5.110812304E0,2.566887140E-1,-6.859067082E-2,-2.791118622E-1,3.853533543E-1
5.115862200E0,2.727968693E-1,-1.066547930E-1,-1.865234375E-1,3.472526019E-1
5.120879336E0,2.480490208E-1,-1.565384567E-1,-1.089076996E-1,3.128793572E-1
5.125896419E0,2.135646343E-1,-2.223781645E-1,-9.604167938E-2,3.229332830E-1
5.130913554E0,2.331918478E-1,-2.325969636E-1,-1.164703369E-1,3.493495739E-1
5.135930638E0,1.140557528E-1,-2.284961641E-1,4.865932465E-2,2.599748865E-1
5.140947721E0,7.873487473E-2,-1.556711793E-1,2.623453140E-1,3.150519963E-1
5.146007565E0,7.876825333E-2,-5.994573236E-2,3.222961426E-1,3.371538700E-1
5.151024700E0,2.018482685E-1,2.535524964E-2,3.010425568E-1,3.633348774E-1
5.156041784E0,3.191765547E-1,1.145329475E-1,3.464899063E-1,4.848161758E-1
5.161058919E0,3.219344616E-1,1.742053926E-1,4.010267258E-1,5.429656998E-1
5.166076002E0,3.465909958E-1,2.356428802E-1,3.671598434E-1,5.571886898E-1
5.171093086E0,3.689969778E-1,3.132505715E-1,1.910028458E-1,5.203525509E-1
5.176123138E0,4.011563063E-1,3.620477319E-1,5.900573730E-2,5.435868093E-1
5.181140273E0,4.547200203E-1,3.586259484E-1,-9.332656860E-2,5.865941665E-1
5.186157356E0,4.488511086E-1,3.130497336E-1,-2.444648743E-1,5.993584304E-1
5.191174492E0,4.146108627E-1,3.066566586E-1,-3.635110855E-1,6.309364335E-1
5.196191575E0,3.785055876E-1,2.394350767E-1,-4.246225357E-1,6.171709112E-1
5.201208659E0,3.001681566E-1,1.421468258E-1,-4.163722992E-1,5.326091755E-1
5.206259596E0,2.867879868E-1,2.199298143E-2,-3.511991501E-1,4.539514111E-1
5.211276731E0,2.666882277E-1,-4.500797391E-2,-2.533416748E-1,3.705810744E-1
5.216293815E0,2.448645830E-1,-1.306701303E-1,-1.753482819E-1,3.282992033E-1
5.221310950E0,1.926513910E-1,-2.373233736E-1,-1.977987289E-1,3.640896583E-1
5.226328034E0,1.032701731E-1,-2.698033452E-1,-1.345710754E-1,3.186972671E-1
5.231345117E0,1.017296314E-2,-3.333220184E-1,-4.100322723E-2,3.359885739E-1
5.236388450E0,-3.170621395E-2,-3.873831332E-1,1.182613373E-1,4.062717314E-1
5.241405586E0,1.293981075E-2,-3.987491429E-1,2.785196304E-1,4.865608926E-1
5.246422669E0,8.384573460E-2,-3.896393180E-1,3.376550674E-1,5.223598854E-1
5.251439804E0,8.788049221E-2,-3.626270890E-1,4.010677338E-1,5.477925827E-1
5.256456888E0,6.345629692E-2,-3.321155310E-1,5.542593002E-1,6.492540330E-1
5.261473971E0,-1.103969812E-1,-2.676021755E-1,6.848545074E-1,7.435214282E-1
5.266525846E0,-1.472060680E-1,-2.024673820E-1,7.526302338E-1,7.931676595E-1
5.271542981E0,-1.408536434E-1,-1.126359999E-1,6.060743332E-1,6.323390821E-1
5.276560065E0,-1.464079618E-1,-1.448842883E-2,3.966188431E-1,4.230268461E-1
5.281577200E0,-1.471959352E-1,5.214935541E-2,1.912841797E-1,2.469328573E-1
5.286594284E0,-6.485331059E-2,1.447296143E-1,-5.273437500E-2,1.671332625E-1
5.291611367E0,3.848254681E-2,2.017658055E-1,-1.736402512E-1,2.689633497E-1
5.296655325E0,6.505835056E-2,2.165448070E-1,-3.007240295E-1,3.762435173E-1
5.301672461E0,-4.165148735E-2,2.487672269E-1,-3.436431885E-1,4.262752873E-1
5.306689544E0,-8.297562599E-2,2.078174949E-1,-3.150157928E-1,3.864039537E-1
5.311706679E0,1.179707050E-2,1.772660315E-1,-3.579587936E-1,3.996209638E-1
5.316723763E0,6.566131115E-2,1.592431068E-1,-3.055715561E-1,3.507759267E-1
5.321740846E0,6.491184235E-2,1.247756481E-1,-2.798080444E-1,3.131693653E-1
5.326795065E0,8.343243599E-2,3.106161952E-2,-2.471523285E-1,2.626976762E-1
5.331812148E0,4.522538185E-2,-3.602230549E-2,-1.767959595E-1,1.860100883E-1
5.336829284E0,2.898502350E-2,-6.012070179E-2,-1.046628952E-1,1.241327999E-1
5.341846367E0,3.219687939E-2,-1.318440437E-1,-6.640625000E-2,1.510936165E-1
5.346863502E0,4.748213291E-2,-1.963427663E-1,-4.034328461E-2,2.059917849E-1
5.351880586E0,7.690346241E-2,-1.610707045E-1,-2.145767212E-4,1.784879839E-1
5.356937617E0,7.266247272E-2,-1.431007981E-1,-7.890701294E-3,1.606858318E-1
5.361954752E0,9.629940987E-2,-1.064690053E-1,4.159736633E-2,1.494642644E-1
5.366971836E0,1.023277044E-1,-1.413384676E-1,2.899646759E-2,1.768850379E-1
5.371988971E0,4.115760326E-2,-1.307006776E-1,9.733772278E-2,1.680810748E-1
5.377006054E0,-8.429336548E-2,-9.611937404E-2,2.055540085E-1,2.420676681E-1
5.382023138E0,-2.285587192E-1,-4.249963164E-2,1.632900238E-1,2.840931866E-1
5.387068294E0,-3.201665878E-1,1.507908106E-3,1.642112732E-1,3.598253187E-1
5.392085429E0,-3.903071880E-1,8.342373371E-2,1.295537949E-1,4.196229333E-1
5.397102513E0,-4.675081968E-1,1.414292157E-1,1.379756927E-1,5.075464796E-1
5.402119648E0,-4.751164317E-1,1.898038387E-1,1.154222488E-1,5.244839525E-1
5.407136731E0,-4.611687660E-1,2.668370008E-1,4.550552368E-2,5.347423384E-1
5.412153815E0,-4.588382244E-1,3.127858639E-1,-2.864265442E-2,5.560466837E-1
5.417185377E0,-4.037240744E-1,3.284718990E-1,-1.521692276E-1,5.422567570E-1
5.422202513E0,-4.291489720E-1,2.783484459E-1,-1.892633438E-1,5.454056388E-1
5.427219596E0,-4.033117890E-1,1.865559220E-1,-1.501884460E-1,4.690629814E-1
5.432236731E0,-3.077734113E-1,1.101614237E-1,-1.804561615E-1,3.733958197E-1
5.437253815E0,-2.429962158E-1,6.779265404E-2,-1.511812210E-1,2.941067263E-1
5.442270898E0,-1.779263020E-1,-9.711444378E-3,-1.103620529E-1,2.095992934E-1
5.447327513E0,-8.869326115E-2,-5.341863632E-2,-6.046772003E-2,1.199015865E-1
5.452345638E0,4.531061649E-2,-9.228274226E-2,-1.250343323E-1,1.618726065E-1
5.457363763E0,1.734304428E-1,-9.014958143E-2,-2.460813522E-1,3.142627841E-1
5.462381940E0,2.170674801E-1,-8.315843344E-2,-2.710695267E-1,3.570886504E-1
5.467400065E0,1.955568790E-1,-6.451186538E-2,-2.482604980E-1,3.225485213E-1
5.472418190E0,2.232649922E-1,-3.679546714E-2,-1.020116806E-1,2.482086746E-1
5.477453450E0,2.282646894E-1,-3.579410911E-2,-6.374931335E-2,2.396872163E-1
5.482471575E0,2.035505772E-1,-7.099393010E-2,5.221366882E-3,2.156391389E-1
5.487489700E0,1.541120410E-1,-4.938453436E-2,7.851028442E-2,1.798700035E-1
5.492507877E0,1.325597167E-1,-3.312540054E-2,8.479595184E-2,1.608095896E-1
5.497526002E0,6.775712967E-2,-1.953759789E-2,1.077346802E-1,1.287614370E-1
5.502544127E0,5.306100845E-2,5.576819181E-3,1.424026489E-1,1.520693459E-1
5.507589075E0,9.275865555E-2,5.409294367E-2,7.705307007E-2,1.321642552E-1
5.512607200E0,4.154354334E-2,1.403686106E-1,1.227092743E-2,1.469006076E-1
5.517625325E0,-6.621778011E-2,1.717800498E-1,-4.486083984E-3,1.841556539E-1
5.522643502E0,-1.824325919E-1,1.893083155E-1,-4.727840424E-2,2.671226992E-1
5.527661627E0,-1.883074641E-1,2.097025514E-1,-7.550048828E-2,2.917793427E-1
5.532679752E0,-1.893326640E-1,1.995673180E-1,-9.401226044E-2,2.907099537E-1
5.537719023E0,-1.783161759E-1,1.588566899E-1,-8.151435852E-2,2.523424205E-1
5.542737148E0,-1.720335484E-1,1.044644713E-1,-4.300975800E-2,2.058110950E-1
5.547755273E0,-2.108814120E-1,2.952337265E-3,-2.383136749E-2,2.122442468E-1
5.552773450E0,-1.900704503E-1,-7.669156790E-2,5.934906006E-2,2.133792014E-1
5.557791575E0,-9.820854664E-2,-1.254835725E-1,3.259754181E-2,1.626457664E-1
5.562809700E0,1.253485680E-4,-1.863833368E-1,1.058597565E-1,2.143479694E-1
5.567850586E0,4.798305035E-2,-2.118550390E-1,1.381359100E-1,2.574227269E-1
5.572868711E0,9.566593170E-2,-2.400555015E-1,6.562232971E-2,2.666175246E-1
5.577886836E0,1.167303920E-1,-2.801883221E-1,1.986598969E-2,3.041810937E-1
5.582904961E0,1.092231274E-1,-2.776049972E-1,7.901954651E-2,3.086070555E-1
5.587923086E0,1.255966425E-1,-2.920084000E-1,2.160816193E-1,3.843627043E-1
5.592941263E0,1.035210490E-1,-2.473850101E-1,2.902860641E-1,3.951986208E-1
5.597993398E0,4.332768917E-2,-1.822164655E-1,3.282890320E-1,3.779600739E-1
5.603011523E0,-5.983436108E-2,-1.348711252E-1,3.945789337E-1,4.212634640E-1
5.608029648E0,-1.698338985E-1,-1.002651751E-1,3.820009232E-1,4.299085527E-1
5.613047825E0,-2.294953465E-1,-2.582854033E-2,3.101959229E-1,3.867256626E-1
5.618065950E0,-2.274575233E-1,2.632740140E-2,2.224292755E-1,3.192253743E-1
5.623084075E0,-2.331792116E-1,8.319881558E-2,4.754447937E-2,2.521012994E-1
5.628129700E0,-2.797199488E-1,1.305457354E-1,-7.121562958E-2,3.167918949E-1
5.633147825E0,-3.236791492E-1,1.852416694E-1,-2.032470703E-1,4.247258401E-1
5.638165950E0,-3.698492646E-1,2.616293430E-1,-3.603219986E-1,5.788526016E-1
5.643184075E0,-3.823754191E-1,2.668402195E-1,-4.139709473E-1,6.235275528E-1
5.648202200E0,-3.900306821E-1,3.013637066E-1,-4.482078552E-1,6.662088997E-1
5.653220377E0,-4.309206605E-1,2.746948302E-1,-4.750652313E-1,6.977369414E-1
5.658263034E0,-4.641992450E-1,1.940253079E-1,-4.090843201E-1,6.484417785E-1
5.663281159E0,-4.589028955E-1,9.983986616E-2,-3.270578384E-1,5.722994811E-1
5.668299284E0,-4.746137857E-1,4.109710455E-3,-1.911211014E-1,5.116663080E-1
5.673317461E0,-4.543042183E-1,-1.673004627E-1,-1.062078476E-1,4.956428901E-1
5.678335534E0,-3.771403432E-1,-2.524612248E-1,-3.147602081E-2,4.549310369E-1
5.683353711E0,-3.170421720E-1,-2.806234956E-1,1.614217758E-1,4.531250101E-1
5.688395586E0,-2.310211658E-1,-2.999138832E-1,2.648239136E-1,4.620073826E-1
5.693413711E0,-8.617079258E-2,-2.961511612E-1,2.462329865E-1,3.946664407E-1
5.698431836E0,1.724296808E-2,-2.953650951E-1,3.323307037E-1,4.449511839E-1
5.703450013E0,8.008319139E-2,-2.879774570E-1,3.939094543E-1,4.944785046E-1
5.708468086E0,1.095297933E-1,-2.290532142E-1,3.955755234E-1,4.700448332E-1
5.713486263E0,9.384149313E-2,-1.426016390E-1,3.734693527E-1,4.106346438E-1
5.718522565E0,1.379716992E-1,-6.424424052E-2,3.539047241E-1,3.852428662E-1
5.723540690E0,1.909130812E-1,5.631476641E-2,1.634931564E-1,2.575833257E-1
5.728558815E0,2.381308079E-1,1.881922483E-1,-4.905128479E-2,3.074550903E-1
5.733576992E0,2.059787512E-1,2.296128869E-1,-1.647815704E-1,3.497174427E-1
5.738595117E0,1.901963949E-1,2.455633879E-1,-2.866640091E-1,4.226728051E-1
5.743613242E0,1.904923916E-1,2.548975050E-1,-3.290948868E-1,4.577810982E-1
5.748664648E0,1.594663858E-1,3.026860654E-1,-2.666273117E-1,4.337493582E-1
5.753682773E0,1.232739687E-1,3.362906873E-1,-2.663936615E-1,4.463781812E-1
5.758700898E0,1.173249483E-1,3.295633495E-1,-3.492202759E-1,4.942994496E-1
5.763719075E0,1.775375605E-1,1.999638081E-1,-3.268146515E-1,4.222711526E-1
5.768737200E0,1.588195562E-1,3.138959408E-2,-3.046026230E-1,3.449517589E-1
5.773755325E0,2.349853516E-2,-8.806800842E-2,-3.538093567E-1,3.653617606E-1
5.778783606E0,-1.510978937E-1,-1.802700758E-1,-1.816806793E-1,2.972132954E-1
5.783801731E0,-1.174626946E-1,-2.317099571E-1,-1.474380493E-3,2.597867638E-1
5.788819856E0,3.709697723E-2,-1.598648429E-1,9.411430359E-2,1.891836564E-1
5.793838034E0,2.053027153E-1,-1.155464649E-1,2.767648697E-1,3.634542386E-1
5.798856159E0,3.042088747E-1,-6.744265556E-2,3.129081726E-1,4.415915259E-1
5.803874284E0,4.103069305E-1,-9.155106544E-2,2.679109573E-1,4.985074281E-1
5.808922200E0,4.070124626E-1,-9.435585141E-2,2.636022568E-1,4.940124707E-1
5.813940325E0,3.949803114E-1,-1.517679393E-1,2.069873810E-1,4.710485428E-1
5.818958450E0,3.837139606E-1,-1.137148142E-1,2.220382690E-1,4.576772394E-1
5.823976627E0,3.729956150E-1,-4.248577356E-2,1.585102081E-1,4.075000072E-1
5.828994752E0,3.625104427E-1,5.921578407E-2,7.410907745E-2,3.747165402E-1
5.834012877E0,3.357758522E-1,1.653330624E-1,1.091327667E-1,3.898594686E-1
5.839049179E0,4.187871218E-1,2.472026348E-1,6.038665771E-3,4.863417127E-1
5.844067304E0,5.394809246E-1,3.172770143E-1,-8.439445496E-2,6.315273516E-1
5.849085429E0,6.024216413E-1,3.328892589E-1,-1.385059357E-1,7.020761973E-1
5.854103606E0,5.224720240E-1,3.395648301E-1,-1.755876541E-1,6.473888429E-1
5.859121731E0,4.287871122E-1,3.181262612E-1,-2.076129913E-1,5.728576262E-1
5.864139856E0,3.164713383E-1,2.522823215E-1,-2.440996170E-1,4.726363303E-1
5.869181419E0,2.378364801E-1,2.301656306E-1,-2.137289047E-1,3.939828086E-1
5.874199544E0,2.614499331E-1,2.060111463E-1,-3.047056198E-1,4.512672984E-1
5.879217669E0,2.889122963E-1,2.108261883E-1,-3.402156830E-1,4.936240549E-1
5.884235846E0,2.797489166E-1,1.279852092E-1,-4.086103439E-1,5.114705107E-1
5.889253971E0,1.937174797E-1,1.974740624E-2,-4.882049561E-1,5.256048907E-1
5.894272096E0,3.180742264E-2,-5.425164104E-2,-4.079074860E-1,4.127268707E-1
5.899318659E0,-5.546414852E-2,-1.418546140E-1,-3.424892426E-1,3.748304744E-1
5.904336784E0,-9.476304054E-2,-1.338551939E-1,-2.704477310E-1,3.162897753E-1
5.909354909E0,-6.492376328E-2,-7.863727212E-2,-1.514720917E-1,1.825998635E-1
5.914373086E0,-4.526853561E-3,-1.002880633E-1,-7.384490967E-2,1.246244708E-1
5.919391211E0,-4.231607914E-2,-1.458920538E-1,-3.719520569E-2,1.563925358E-1
5.924409336E0,-1.132775545E-1,-1.889237463E-1,3.957176208E-2,2.238077538E-1
5.929449700E0,-1.679040194E-1,-2.270294577E-1,1.063127518E-1,3.017226136E-1
5.934467825E0,-1.990511417E-1,-2.530464530E-1,2.486114502E-1,4.067696124E-1
5.939485950E0,-2.281190157E-1,-2.555252910E-1,3.423023224E-1,4.842544161E-1
5.944504127E0,-2.241894007E-1,-2.443756759E-1,4.851875305E-1,5.876966038E-1
5.949522252E0,-1.448125839E-1,-1.482936591E-1,5.105705261E-1,5.510389786E-1
5.954540377E0,6.418168545E-2,-2.016952634E-2,5.073022842E-1,5.117437895E-1
5.959579388E0,2.046253681E-1,1.139154136E-1,4.257154465E-1,4.858826032E-1
5.964598294E0,3.083152771E-1,1.873905659E-1,3.661947250E-1,5.140740325E-1
5.969617200E0,3.878718615E-1,2.344672680E-1,2.809762955E-1,5.332608736E-1
5.974636159E0,3.343255520E-1,1.983515024E-1,1.417522430E-1,4.137760163E-1
5.979655065E0,2.415225506E-1,7.482254505E-2,1.057500839E-1,2.740704945E-1
5.984673971E0,1.170212030E-1,-4.754942656E-2,6.044673920E-2,1.400311330E-1
5.989712304E0,1.088488102E-2,-1.569927484E-1,3.681468964E-2,1.616184552E-1
5.994731211E0,-1.005460024E-1,-1.872183830E-1,-1.049232483E-2,2.127682081E-1
5.999750117E0,-6.526494026E-2,-2.383947372E-1,-1.121597290E-1,2.714247004E-1
6.004769075E0,-2.485561371E-2,-2.530829906E-1,-3.318586349E-1,4.180896498E-1
6.009787981E0,-2.428483963E-2,-2.839148939E-1,-3.621845245E-1,4.608416759E-1
6.014806888E0,-3.629326820E-3,-2.570500076E-1,-2.973909378E-1,3.931020838E-1
6.019847096E0,2.032566071E-2,-2.256202102E-1,-3.330526352E-1,4.027923405E-1
6.024866002E0,4.254806042E-2,-1.637932956E-1,-3.138799667E-1,3.565939072E-1
6.029884909E0,5.091762543E-2,-1.030078083E-1,-2.094058990E-1,2.388598830E-1
6.034903867E0,5.314230919E-3,-3.388738632E-2,-1.058740616E-1,1.112920164E-1
6.039922773E0,4.422962666E-2,8.798241615E-4,1.331233978E-2,4.619796917E-2
6.044941679E0,6.909942627E-2,3.230068088E-2,5.557060242E-3,7.647839966E-2
6.049988919E0,1.462585926E-1,7.232046127E-2,9.763050079E-2,1.901408418E-1
6.055007825E0,2.326189280E-1,9.221398830E-2,2.293043137E-1,3.394045573E-1
6.060026731E0,3.566933870E-1,1.613669991E-1,3.242101669E-1,5.083126136E-1
6.065045690E0,4.684423208E-1,2.156743407E-1,2.852220535E-1,5.893260973E-1
6.070064596E0,6.363049746E-1,2.057860196E-1,8.738136292E-2,6.744385881E-1
6.075083502E0,7.243012190E-1,1.726868451E-1,-2.092075348E-2,7.448964225E-1
6.080110429E0,6.951910257E-1,1.097875834E-1,-5.233573914E-2,7.057498886E-1
6.085129336E0,7.350786924E-1,5.309060216E-2,-3.124141693E-2,7.376552869E-1
6.090148242E0,7.955774069E-1,2.578324080E-2,-7.679557800E-2,7.996910320E-1
6.095167200E0,7.457463741E-1,-1.535800099E-2,-8.152389526E-2,7.503463655E-1
6.100186106E0,6.484148502E-1,-4.921835661E-2,2.787208557E-2,6.508771910E-1
6.105205013E0,5.870676041E-1,-2.828264236E-2,3.189468384E-2,5.886132435E-1
6.110244231E0,5.634239912E-1,-5.760923028E-2,-6.852626801E-2,5.704921267E-1
6.115263138E0,4.561077356E-1,-1.153920889E-1,-6.823921204E-2,4.754010841E-1
6.120282044E0,1.942918301E-1,-1.396880895E-1,-3.680229187E-3,2.393232577E-1
6.125301002E0,-2.863633633E-2,-1.258880198E-1,8.902168274E-2,1.568205767E-1
6.130319909E0,-2.227694988E-1,-4.582092166E-2,1.241455078E-1,2.591098485E-1
6.135338815E0,-3.904648423E-1,5.725312233E-2,2.209148407E-1,4.522654972E-1
6.140376575E0,-4.792350531E-1,1.406574547E-1,2.480926514E-1,5.576743847E-1
6.145395481E0,-4.801515341E-1,2.308815718E-1,2.703828812E-1,5.974602064E-1
6.150414388E0,-4.622789025E-1,3.326025307E-1,2.497434616E-1,6.218504835E-1
6.155433346E0,-4.658927321E-1,3.771176338E-1,2.031183243E-1,6.328750282E-1
6.160452252E0,-4.362781048E-1,3.910795450E-1,3.809165955E-2,5.871394807E-1
6.165471159E0,-4.399191737E-1,4.105961025E-1,-1.256227493E-1,6.147349949E-1
6.170508763E0,-4.405087829E-1,3.692334294E-1,-2.287015915E-1,6.186159803E-1
6.175527669E0,-4.092636108E-1,3.147706389E-1,-3.049392700E-1,5.996375711E-1
6.180546575E0,-2.752369642E-1,1.882531941E-1,-4.638376236E-1,5.712617549E-1
6.185565534E0,-2.936744690E-1,1.300752163E-1,-5.597581863E-1,6.453630628E-1
6.190584440E0,-4.012861252E-1,-5.803465843E-3,-4.459552765E-1,5.999502839E-1
6.195603346E0,-5.165632367E-1,-7.428474724E-2,-3.712186813E-1,6.404366562E-1
6.200645534E0,-5.520142317E-1,-1.354717314E-1,-4.563093185E-1,7.288967665E-1
6.205664440E0,-5.207514763E-1,-2.153320462E-1,-5.406675339E-1,7.809426178E-1
6.210683346E0,-4.320584536E-1,-3.065442443E-1,-4.296054840E-1,6.820592004E-1
6.215702304E0,-2.839333415E-1,-4.281331599E-1,-3.243064880E-1,6.075284711E-1
6.220721211E0,-2.759528160E-2,-4.774335027E-1,-3.814363480E-1,6.117172031E-1
6.225740117E0,1.297423840E-1,-5.051981211E-1,-1.982154846E-1,5.579853099E-1
6.230779023E0,1.748157740E-1,-5.452909470E-1,2.352199554E-1,6.190567010E-1
6.235797929E0,2.343842983E-1,-5.456917882E-1,4.773263931E-1,7.619422633E-1
6.240816836E0,2.673898935E-1,-5.167264938E-1,7.625818253E-1,9.591843748E-1
6.245835742E0,3.237346411E-1,-4.498606324E-1,9.766359329E-1,1.122940983E0
6.250854700E0,3.815796375E-1,-3.003357649E-1,1.146247864E0,1.244864955E0
6.255873606E0,2.576829195E-1,-6.690919399E-2,1.271833420E0,1.299398928E0
6.260922304E0,3.170301914E-1,1.268144399E-1,1.154204369E0,1.203651847E0
6.265941211E0,5.751774311E-1,2.365998775E-1,7.905712128E-1,1.005888374E0
6.270960117E0,9.162154198E-1,2.331052274E-1,5.440778732E-1,1.090783881E0
6.275979075E0,1.033229709E0,3.051978946E-1,3.376998901E-1,1.129048538E0
6.280997981E0,8.689988852E-1,3.927810490E-1,2.732172012E-1,9.920099062E-1
6.286016888E0,6.778211594E-1,4.013347328E-1,1.166095734E-1,7.963095406E-1
6.291041836E0,4.762867689E-1,3.479625881E-1,-2.192077637E-1,6.292686967E-1
6.296060742E0,3.451321125E-1,2.742160559E-1,-5.284538269E-1,6.881671799E-1
6.301079648E0,2.459679842E-1,1.713308990E-1,-8.208942413E-1,8.739118272E-1
6.306098606E0,1.996051073E-1,5.706560612E-2,-1.156050682E0,1.174543257E0
6.311117513E0,2.575503588E-1,-6.114688516E-2,-1.507409096E0,1.530474864E0
6.316136419E0,1.888703108E-1,-1.975981593E-1,-1.212105751E0,1.242544719E0
6.321174231E0,1.390517950E-1,-2.503855824E-1,-1.154405594E0,1.189403471E0
6.326193138E0,7.213926315E-2,-2.994728386E-1,-7.241382599E-1,7.869334621E-1
6.331212044E0,-4.474544525E-2,-3.550403416E-1,-1.619739532E-1,3.927993897E-1
6.336231002E0,-1.774715185E-1,-3.703703284E-1,4.145545959E-1,5.835459134E-1
6.341249909E0,-2.808371782E-1,-3.392785490E-1,7.036609650E-1,8.301314402E-1
6.346268815E0,-3.338637352E-1,-3.502396941E-1,8.788042068E-1,1.003209684E0
6.351308450E0,-2.468146086E-1,-3.103386164E-1,9.908370972E-1,1.067232712E0
6.356327356E0,-2.224863768E-1,-2.342412472E-1,1.080633163E0,1.127890590E0
6.361346263E0,-2.885190248E-1,-8.186815679E-2,1.145958900E0,1.184553681E0
6.366365221E0,-2.587605715E-1,3.752708435E-2,1.008821487E0,1.042154551E0
6.371384127E0,-1.814084053E-1,1.010511220E-1,7.397661209E-1,7.683581537E-1
6.376403034E0,-8.551466465E-2,8.843752742E-2,4.182834625E-1,4.359988637E-1
6.381441836E0,-6.817340851E-3,1.050985157E-1,1.493186951E-1,1.827245108E-1
6.386460742E0,7.840168476E-2,1.558838487E-1,-1.008119583E-1,2.015183599E-1
6.391479648E0,1.083725691E-1,2.525428534E-1,-3.346538544E-1,4.330308404E-1
6.396498606E0,8.366131783E-2,2.616566420E-1,-4.715909958E-1,5.457668749E-1
6.401517513E0,8.316791058E-2,2.266620994E-1,-5.908298492E-1,6.382574084E-1
6.406536419E0,4.012739658E-2,1.287008226E-1,-6.853790283E-1,6.985116478E-1
6.411575742E0,-4.743635654E-2,9.631505609E-2,-6.722955704E-1,6.808143153E-1
6.416594648E0,-6.273949146E-2,8.140563965E-2,-6.997623444E-1,7.072697226E-1
6.421613554E0,-4.525184631E-3,3.148323298E-2,-8.718919754E-1,8.724719411E-1
6.426632513E0,4.582607746E-2,-1.308706403E-2,-9.665422440E-1,9.677164926E-1
6.431651419E0,-3.463530540E-2,-5.274921656E-2,-5.568170547E-1,5.603814029E-1
6.436670325E0,2.552700043E-2,-1.255005896E-1,-5.353097916E-1,5.504167500E-1
6.441708398E0,-6.211698055E-2,-1.718197018E-1,-2.384042740E-1,3.003616604E-1
6.446727304E0,-1.038569212E-1,-1.969152242E-1,-2.947711945E-2,2.245679545E-1
6.451746211E0,-4.301476479E-2,-1.749494076E-1,2.537384033E-1,3.111924525E-1
6.456765169E0,6.977117062E-2,-1.468534470E-1,4.609565735E-1,4.887892325E-1
6.461784075E0,1.511358023E-1,-1.293287873E-1,6.046609879E-1,6.365397680E-1
6.466802981E0,2.326813936E-1,-8.900979161E-2,6.971940994E-1,7.403667917E-1
6.471845638E0,3.259685040E-1,-2.783289552E-2,6.796159744E-1,7.542599077E-1
6.476865221E0,3.714687824E-1,9.223547578E-2,6.098546982E-1,7.200133278E-1
6.481884804E0,4.054173231E-1,1.806383431E-1,4.336719513E-1,6.205358799E-1
6.486904388E0,4.945309162E-1,2.833370864E-1,2.445659637E-1,6.202041940E-1
6.491923971E0,6.450862885E-1,3.598481715E-1,7.357692719E-2,7.423210830E-1
6.496943554E0,6.806905270E-1,4.151508808E-1,-3.430080414E-2,7.980390921E-1
6.501984648E0,6.357254982E-1,4.564057291E-1,-1.770067215E-1,8.023618124E-1
6.507004231E0,5.937676430E-1,4.318402410E-1,-3.969936371E-1,8.346555909E-1
6.512023815E0,6.137336493E-1,3.089355528E-1,-6.484289169E-1,9.447593494E-1
6.517043398E0,5.902737379E-1,1.689163744E-1,-7.100677490E-1,9.386969881E-1
6.522062981E0,6.308147907E-1,9.482544661E-2,-6.666488647E-1,9.226808085E-1
6.527082565E0,5.493377447E-1,4.785031080E-3,-5.427522659E-1,7.722531168E-1
6.532107252E0,3.726679087E-1,-5.159729719E-2,-4.102544785E-1,5.566438613E-1
6.537126836E0,9.393739700E-2,-1.673512459E-1,-3.142833710E-1,3.682454498E-1
6.542146419E0,-1.651166677E-1,-2.303954065E-1,-1.380920410E-1,3.153013940E-1
6.547166002E0,-2.100085020E-1,-2.295330614E-1,5.354118347E-2,3.156828401E-1
6.552185586E0,-1.185264587E-1,-1.986563206E-1,2.652397156E-1,3.519445437E-1
6.557205169E0,-1.619945765E-1,-1.428406835E-1,5.775232315E-1,6.165863983E-1
6.562239700E0,-2.796871662E-1,-1.570857763E-1,6.759462357E-1,7.482006185E-1
6.567259284E0,-3.520810604E-1,-1.476770490E-1,5.337467194E-1,6.562432052E-1
6.572278867E0,-3.671851158E-1,-9.775847197E-2,5.804414749E-1,6.937535109E-1
6.577298450E0,-2.990839481E-1,4.225605726E-2,5.269794464E-1,6.074077044E-1
6.582318034E0,-1.339433193E-1,1.885680854E-1,3.860282898E-1,4.500184176E-1
6.587337617E0,-7.149732113E-2,2.082573175E-1,3.839015961E-1,4.425645859E-1
6.592370377E0,-7.486236095E-2,1.262985170E-1,2.651948929E-1,3.031237696E-1
6.597389961E0,-6.294226646E-2,3.348165751E-2,2.854537964E-2,7.679576157E-2
6.602409544E0,-1.500709057E-1,-1.178848743E-1,-5.896854401E-2,1.997383526E-1
6.607429127E0,-1.336039305E-1,-2.156700045E-1,-2.527580261E-1,3.581203441E-1
6.612448711E0,-1.732094288E-1,-2.963440120E-1,-2.502822876E-1,4.248087842E-1
6.617468294E0,-2.496864796E-1,-3.484875858E-1,-3.215618134E-1,5.359001169E-1
6.622502044E0,-2.389267683E-1,-3.771586418E-1,-3.116092682E-1,5.444584261E-1
6.627521627E0,-1.773470640E-1,-4.063692093E-1,-2.971096039E-1,5.337246782E-1
6.632541211E0,-9.150278568E-2,-3.461115956E-1,-2.662115097E-1,4.461328998E-1
6.637560794E0,-1.980745792E-2,-3.254250288E-1,-2.451534271E-1,4.079141915E-1
6.642580377E0,-2.639734745E-2,-3.155829012E-1,-1.340570450E-1,3.438905041E-1
6.647599961E0,4.177498817E-2,-2.001969516E-1,-2.355575562E-4,2.045092286E-1
6.652639388E0,9.378612041E-2,-1.414617002E-1,1.038599014E-1,1.989827332E-1
6.657658971E0,9.151780605E-2,-1.360622793E-1,1.428632736E-1,2.174818789E-1
6.662678554E0,1.966679096E-1,-1.047773957E-1,8.171272278E-2,2.373468736E-1
6.667698138E0,2.133814096E-1,-5.202096701E-2,1.041631699E-1,2.430797666E-1
6.672717721E0,2.348278761E-1,-1.570114493E-2,1.073884964E-1,2.586946975E-1
6.677737304E0,2.489902973E-1,6.849497557E-2,1.153135300E-1,2.828160887E-1
6.682767461E0,2.703635693E-1,1.502259970E-1,2.181482315E-1,3.784877285E-1
6.687787044E0,3.910043240E-1,2.578875124E-1,2.180099487E-1,5.166417406E-1
6.692806627E0,5.102885962E-1,3.103373349E-1,1.846570969E-1,6.251415489E-1
6.697826211E0,5.498279333E-1,3.105887473E-1,1.041040421E-1,6.400107638E-1
6.702845794E0,4.535837173E-1,3.231137097E-1,8.835411072E-2,5.638679871E-1
6.707865377E0,4.246413708E-1,3.194645345E-1,-6.744098663E-2,5.356548975E-1
6.712910690E0,3.791682720E-1,2.713598609E-1,-1.839351654E-1,5.012353715E-1
6.717930273E0,4.078307152E-1,2.556136549E-1,-2.330074310E-1,5.347491895E-1
6.722949856E0,5.100393295E-1,2.479802668E-1,-3.363666534E-1,6.593761111E-1
6.727969440E0,4.926708937E-1,2.293520272E-1,-3.462638855E-1,6.443800433E-1
6.732989023E0,4.470818043E-1,1.378924847E-1,-3.371229172E-1,5.766700429E-1
6.738008606E0,5.089673996E-1,9.752216935E-2,-2.758436203E-1,5.870673643E-1
6.743068242E0,5.231305361E-1,6.706506014E-2,-1.628570557E-1,5.519834243E-1
6.748087825E0,5.135778189E-1,3.658553958E-2,-1.624698639E-1,5.399047457E-1
6.753107409E0,4.378478527E-1,2.525979280E-2,-1.549873352E-1,4.651557517E-1
6.758126992E0,4.625263214E-1,8.755102754E-2,-1.570625305E-1,4.962503591E-1
6.763146575E0,4.512062073E-1,1.159234941E-1,-1.567144394E-1,4.915126789E-1
6.768166159E0,4.183933735E-1,1.037256122E-1,-1.539649963E-1,4.577305296E-1
6.773166367E0,4.353617430E-1,8.473494649E-2,-2.058334351E-1,4.889655012E-1
6.778185950E0,4.448375702E-1,1.280536354E-1,-1.812391281E-1,4.971175102E-1
6.783205534E0,5.369770527E-1,1.142204106E-1,-1.259212494E-1,5.632466763E-1
6.788225117E0,6.277979612E-1,1.054103971E-1,-3.773880005E-2,6.377035745E-1
6.793244700E0,6.581346989E-1,6.598684192E-2,2.598953247E-2,6.619448625E-1
6.798264284E0,6.614440680E-1,4.581910372E-2,6.789970398E-2,6.664968230E-1
6.803303346E0,6.925350428E-1,-1.479992270E-2,7.155609131E-2,6.963792770E-1
6.808322929E0,7.108299732E-1,-1.554951072E-2,1.132812500E-1,7.199678324E-1
6.813342513E0,6.904770136E-1,-1.172927022E-2,1.167259216E-1,7.003720603E-1
6.818362096E0,6.154595613E-1,-1.556017995E-2,1.463212967E-1,6.328052724E-1
6.823381679E0,5.907075405E-1,1.375985146E-2,6.881141663E-2,5.948611124E-1
6.828401263E0,5.491904020E-1,3.813102841E-2,-3.888988495E-2,5.518844953E-1
6.833430690E0,4.888675213E-1,2.407059073E-2,-1.290349960E-1,5.061826517E-1
6.838450273E0,3.529876471E-1,-1.810601354E-2,-1.828031540E-1,3.979259979E-1
6.843469856E0,1.682008505E-1,-5.033296347E-2,-1.957216263E-1,2.629294360E-1
6.848489440E0,1.010502577E-1,-1.811465621E-2,-2.274961472E-1,2.495872439E-1
6.853509023E0,9.364306927E-2,-2.433574200E-2,-1.758270264E-1,2.006898003E-1
6.858528606E0,1.077783108E-1,-3.080770373E-2,-1.198368073E-1,1.640918622E-1
6.863569804E0,1.243391037E-1,-8.953660727E-3,-1.142139435E-1,1.690715991E-1
6.868589388E0,1.150003672E-1,-5.383369327E-2,-1.229391098E-1,1.767404190E-1
6.873608971E0,1.012980938E-1,-7.468760014E-2,-8.887100220E-2,1.540701024E-1
6.878628554E0,2.092704773E-1,-1.701217890E-2,-4.563903809E-2,2.148638376E-1
6.883648138E0,2.624189854E-1,2.595815063E-2,3.038883209E-2,2.654449671E-1
6.888667721E0,3.607175350E-1,1.015913188E-1,7.247352600E-2,3.816940504E-1
6.893697929E0,4.561880827E-1,8.849927783E-2,1.521739960E-1,4.889750648E-1
6.898717513E0,5.512200594E-1,1.274618804E-1,2.430534363E-1,6.157638003E-1
6.903737096E0,5.510643721E-1,1.941784918E-1,4.305057526E-1,7.257495655E-1
6.908756679E0,4.591937065E-1,2.810022831E-1,5.545368195E-1,7.728727110E-1
6.913776263E0,3.049764633E-1,3.283461928E-1,5.277700424E-1,6.923605153E-1
6.918795846E0,6.718873978E-2,3.534845412E-1,4.298934937E-1,5.606015193E-1
6.923829127E0,-1.491485834E-1,2.905280590E-1,2.448806763E-1,4.081891701E-1
6.928848711E0,-3.851457238E-1,2.688845992E-1,-4.786491394E-2,4.721516772E-1
6.933868294E0,-5.341848731E-1,1.815545559E-1,-3.024883270E-1,6.401677307E-1
6.938887877E0,-5.968884230E-1,7.711333036E-2,-5.027208328E-1,7.841877906E-1
6.943907461E0,-6.123762131E-1,1.079568267E-2,-6.584882736E-1,8.992930443E-1
6.948927044E0,-5.739048719E-1,-1.986128092E-2,-8.271884918E-1,1.006976700E0
6.953979492E0,-4.580378532E-1,-8.628860116E-2,-9.469747543E-1,1.055464629E0
6.958999075E0,-3.201537132E-1,-1.551757157E-1,-9.303340912E-1,9.960418787E-1
6.964018659E0,-2.600972652E-1,-2.057626396E-1,-7.142457962E-1,7.874870848E-1
6.969038242E0,-2.268807888E-1,-2.292850763E-1,-3.312845230E-1,4.623807670E-1
6.974057825E0,-2.339748144E-1,-2.506748438E-1,7.697677612E-2,3.514363600E-1
6.979077409E0,-1.765207052E-1,-2.322414219E-1,3.393001556E-1,4.474597558E-1
6.984100846E0,-8.629786968E-2,-2.007967681E-1,4.593372345E-1,5.086819826E-1
6.989120898E0,-3.705906868E-2,-1.925373971E-1,5.784263611E-1,6.107545162E-1
6.994141002E0,-3.305602074E-2,-1.976619214E-1,7.155523300E-1,7.430868541E-1
6.999161106E0,-8.093631268E-2,-1.282623708E-1,8.254194260E-1,8.392372437E-1
7.004181159E0,-1.887881756E-2,-3.228533268E-2,7.396020889E-1,7.405470967E-1
7.009201263E0,1.695430279E-2,3.591307998E-2,5.167045593E-1,5.182285204E-1
7.014231315E0,3.376448154E-2,7.717633247E-2,3.170213699E-1,3.280225229E-1
7.019251367E0,-3.281056881E-2,9.875047207E-2,1.522884369E-1,1.844449977E-1
7.024271471E0,-1.105862856E-1,9.158697724E-2,1.504554749E-1,2.079768037E-1
7.029291575E0,-1.590893269E-1,5.846974254E-2,7.973194122E-2,1.873107236E-1
7.034311627E0,-1.501139402E-1,3.536504507E-2,8.201599121E-5,1.542235008E-1
7.039331731E0,-1.363942623E-1,2.929750085E-2,-8.366966248E-2,1.626725262E-1
7.044379231E0,-1.799132824E-1,-2.386185527E-2,-1.477165222E-1,2.340050176E-1
7.049399284E0,-1.851868033E-1,-8.108389378E-2,-2.349767685E-1,3.099723079E-1
7.054419388E0,-2.003745437E-1,-1.187505722E-1,-2.668180466E-1,3.541800758E-1
7.059439492E0,-2.703353167E-1,-1.418423951E-1,-2.698535919E-1,4.074572487E-1
7.064459544E0,-2.685715556E-1,-1.458879113E-1,-1.754426956E-1,3.524118366E-1
7.069479648E0,-3.239638209E-1,-1.121852696E-1,-1.530542374E-1,3.754513172E-1
7.074493606E0,-2.958836555E-1,-9.315502644E-2,-1.213274002E-1,3.330845758E-1
7.079513659E0,-2.114025354E-1,-4.825413227E-2,-1.610803604E-1,2.701228901E-1
7.084533763E0,-1.729206443E-1,-6.297796965E-3,-7.931900024E-2,1.903489303E-1
7.089553867E0,-1.369774938E-1,3.256505728E-2,6.114768982E-2,1.535003476E-1
7.094573919E0,-8.929586411E-2,9.438139200E-2,1.173038483E-1,1.750479686E-1
7.099594023E0,-1.207947731E-3,1.269570887E-1,1.088180542E-1,1.672152219E-1
7.104629179E0,1.413297653E-1,1.211583316E-1,8.609294891E-2,2.050986098E-1
7.109649231E0,2.165298462E-1,7.256236672E-2,-5.367279053E-3,2.284278421E-1
7.114669336E0,1.891182661E-1,5.306777358E-2,-2.719879150E-2,1.982969526E-1
7.119689440E0,5.564689636E-3,4.086270928E-2,2.409229279E-1,2.444270524E-1
7.124709492E0,-6.714725494E-2,1.661166549E-2,2.645177841E-1,2.734124346E-1
7.129729596E0,-1.175814867E-1,-9.864628315E-3,3.045186996E-1,3.265797840E-1
7.134759648E0,-8.190619946E-2,-8.363655210E-2,3.370466232E-1,3.567970356E-1
7.139779700E0,4.608404636E-2,-2.610179782E-1,2.552738190E-1,3.679929985E-1
7.144799804E0,4.930472374E-2,-3.463093936E-1,-1.180028915E-1,3.691691134E-1
7.149819909E0,-1.306659579E-1,-4.546206295E-1,-3.203678131E-2,4.741095493E-1
7.154839961E0,-2.834261060E-1,-5.357301235E-1,-7.739925385E-2,6.110055379E-1
7.159860065E0,-4.375062585E-1,-4.929232895E-1,-4.870319366E-2,6.608760070E-1
7.164906054E0,-5.077322125E-1,-4.393780231E-1,1.786327362E-2,6.716875341E-1
7.169926106E0,-4.590574503E-1,-3.138125539E-1,1.029844284E-1,5.655244063E-1
7.174946211E0,-3.447560072E-1,-6.723242998E-2,9.724617004E-2,3.644636082E-1
7.179966315E0,-2.744800448E-1,1.121203005E-1,-2.951049805E-2,2.979616188E-1
7.184986367E0,-2.312343717E-1,2.540916204E-1,-2.311782837E-1,4.140957438E-1
7.190006471E0,-1.220273376E-1,3.238424361E-1,-3.432531357E-1,4.874292868E-1
7.195035325E0,-1.447240710E-1,3.222135603E-1,-3.213443756E-1,4.775236569E-1
7.200055377E0,-1.674228311E-1,2.993442118E-1,-2.307081223E-1,4.133565037E-1
7.205075481E0,-2.091331482E-1,2.604838014E-1,-1.812076569E-1,3.800324978E-1
7.210095586E0,-1.959613562E-1,2.038256526E-1,-1.273984909E-1,3.101227584E-1
7.215115638E0,-1.613246799E-1,1.671898365E-1,-1.120901108E-1,2.579579165E-1
7.220135742E0,-8.397072554E-2,1.245889664E-1,-1.349859238E-1,2.019769613E-1
7.225160846E0,2.392089367E-2,1.261638999E-1,-1.031351089E-1,1.647009092E-1
7.230180898E0,1.124628186E-1,1.782624125E-1,-7.499694824E-3,2.109066588E-1
7.235201002E0,1.887985468E-1,2.563790679E-1,1.252918243E-1,3.421595519E-1
7.240221106E0,1.793367267E-1,2.984293699E-1,2.640562057E-1,4.369753199E-1
7.245241159E0,1.916514635E-1,3.494653106E-1,3.446302414E-1,5.269025432E-1
7.250261263E0,2.277873755E-1,3.739242554E-1,2.772359848E-1,5.182337585E-1
7.255295117E0,2.375653982E-1,2.440108657E-1,1.011085510E-1,3.552485892E-1
7.260315169E0,3.208599091E-1,-1.004563868E-1,-1.139564514E-1,3.550051263E-1
7.265335273E0,3.321787715E-1,-4.174300134E-1,-2.987689972E-1,6.114355780E-1
7.270355377E0,2.692341208E-1,-5.176302791E-1,-3.679819107E-1,6.898107017E-1
7.275375429E0,1.183685064E-1,-5.218072534E-1,-3.653049469E-1,6.478746925E-1
7.280395534E0,-1.127038598E-1,-4.810375869E-1,-2.865514755E-1,5.711489019E-1
7.285429909E0,-2.165923715E-1,-3.393415213E-1,-1.299514771E-1,4.230275521E-1
7.290449961E0,1.015257835E-2,-4.099151492E-2,4.446029663E-2,6.131963078E-2
7.295470065E0,1.944279671E-1,1.133999825E-1,1.201114655E-1,2.551245863E-1
7.300490169E0,2.419295311E-1,1.896378994E-1,7.400798798E-2,3.161797166E-1
7.305510221E0,3.676940203E-1,2.198876143E-1,-5.724239349E-2,4.322339032E-1
7.310530325E0,5.047729015E-1,2.289933562E-1,-1.993484497E-1,5.890445176E-1
7.315562461E0,5.581692457E-1,1.580327153E-1,-2.334709167E-1,6.253286456E-1
7.320582513E0,4.666812420E-1,9.550631046E-2,-1.509923935E-1,4.997114566E-1
7.325602617E0,4.375675917E-1,6.985425949E-2,-8.347892761E-2,4.509032559E-1
7.330622721E0,4.893183112E-1,1.192027330E-2,-4.268741608E-2,4.913214000E-1
7.335642773E0,5.286651254E-1,5.495548248E-5,1.249313354E-4,5.286651430E-1
7.340662877E0,5.911398530E-1,-3.744876385E-2,4.258823395E-2,5.938539327E-1
7.345690898E0,5.982099771E-1,-3.179186583E-2,1.251001358E-1,6.119770776E-1
7.350710950E0,5.671681762E-1,-4.050949216E-2,1.974296570E-1,6.019129742E-1
7.355731054E0,5.501833558E-1,-8.274430037E-2,2.074546814E-1,5.937893474E-1
7.360751159E0,4.875913262E-1,-1.277451813E-1,2.293758392E-1,5.537846228E-1
7.365771211E0,4.395725727E-1,-1.752249002E-1,1.276302338E-1,4.901196680E-1
7.370791315E0,4.107649922E-1,-1.014948785E-1,1.964473724E-2,4.235740843E-1
7.375822461E0,4.317340255E-1,-9.815871716E-3,-1.136493683E-2,4.319951179E-1
7.380842513E0,3.956243992E-1,5.177676678E-3,-6.826305389E-2,4.015038208E-1
7.385862617E0,3.718555570E-1,3.934997320E-2,-9.383773804E-2,3.855262594E-1
7.390882721E0,3.981314898E-1,4.512387514E-2,-1.405963898E-1,4.246318312E-1
7.395902773E0,3.888728619E-1,4.180234671E-2,-1.727705002E-1,4.275736014E-1
7.400922877E0,3.750587106E-1,2.923810482E-2,-1.524410248E-1,4.059090652E-1
7.405968763E0,3.233668208E-1,5.249708891E-2,-1.346607208E-1,3.541970566E-1
7.410988815E0,2.671495676E-1,-7.648825645E-3,-9.800052643E-2,2.846603225E-1
7.416008919E0,2.325246930E-1,-1.989251375E-2,-8.774471283E-2,2.493242459E-1
7.421029023E0,1.765035391E-1,-1.422643661E-3,-1.226634979E-1,2.149461722E-1
7.426049075E0,1.776517630E-1,-2.829444408E-2,-1.382532120E-1,2.268803100E-1
7.431069179E0,1.240438223E-1,-1.454848051E-2,-1.798324585E-1,2.189480332E-1
7.436089648E0,7.542127371E-2,2.300357819E-2,-1.355333328E-1,1.568018413E-1
7.441109700E0,5.073797703E-2,5.087012053E-2,-1.390991211E-1,1.565588610E-1
7.446129804E0,6.204062700E-2,5.982625484E-2,-4.289531708E-2,9.627163858E-2
7.451149909E0,5.423927307E-2,9.268051386E-2,2.636337280E-2,1.105739744E-1
7.456169961E0,6.797778606E-2,1.301311255E-1,9.265327454E-2,1.736079448E-1
7.461190065E0,7.943117619E-2,1.388719082E-1,7.997035980E-2,1.788574211E-1
7.466226263E0,1.265152693E-1,1.380598545E-1,5.312919617E-2,1.946518643E-1
7.471246315E0,1.923720837E-1,2.833032608E-2,-2.103614807E-2,1.955815571E-1
7.476266419E0,1.843057871E-1,-1.015703976E-1,-1.623344421E-2,2.110656143E-1
7.481286523E0,1.432925463E-1,-1.613165140E-1,-1.388168335E-2,2.162139511E-1
7.486306575E0,1.547260284E-1,-2.183448374E-1,-2.102756500E-2,2.684339218E-1
7.491326679E0,9.226274490E-2,-2.347159386E-1,4.555797577E-2,2.562801496E-1
7.496356575E0,4.178237915E-2,-2.253372371E-1,9.740638733E-2,2.490193606E-1
7.501377044E0,1.273846626E-2,-2.621051073E-1,1.584129333E-1,3.065224515E-1
7.506397565E0,-1.624518633E-2,-2.754888237E-1,1.334476471E-1,3.065391860E-1
7.511418034E0,-6.187844276E-2,-2.254455388E-1,9.926128387E-2,2.539831394E-1
7.516438554E0,-5.048972368E-2,-2.452123761E-1,4.879760742E-2,2.550676932E-1
7.521459023E0,-1.131163836E-1,-2.174739242E-1,-3.684043884E-2,2.478859452E-1
7.526494284E0,-1.301410794E-1,-1.877034009E-1,-4.811096191E-2,2.334179340E-1
7.531514752E0,-1.255329251E-1,-1.223372519E-1,-4.505729675E-2,1.809836415E-1
7.536535273E0,-1.090905666E-1,-4.304462671E-2,-1.828479767E-2,1.186925669E-1
7.541555742E0,-9.951370955E-2,4.789233208E-3,-2.028751373E-2,1.016734890E-1
7.546576263E0,-2.805304527E-2,6.675279140E-2,-3.656196594E-2,8.111526282E-2
7.551596731E0,-6.716609001E-3,1.427229643E-1,-2.866744995E-3,1.429096764E-1
7.556625429E0,1.501357555E-2,1.708057523E-1,-4.062652588E-4,1.714647996E-1
7.561645898E0,7.250726223E-2,2.014990449E-1,-2.776145935E-3,2.141655321E-1
7.566666419E0,7.266533375E-2,2.299755216E-1,-7.540702820E-3,2.413003387E-1
7.571686888E0,5.847513676E-2,2.205526233E-1,-4.553413391E-2,2.326717830E-1
7.576707409E0,5.829441547E-2,2.164773941E-1,-6.894969940E-2,2.345522587E-1
7.581727877E0,-1.693129539E-3,2.128093243E-1,-1.087770462E-1,2.390044371E-1
7.586761888E0,-1.069449782E-1,1.880634427E-1,-1.648511887E-1,2.719944875E-1
7.591782356E0,-1.264343858E-1,1.567323208E-1,-1.705274582E-1,2.638755166E-1
7.596802877E0,-1.319800019E-1,5.487245321E-2,-1.666326523E-1,2.195362108E-1
7.601823346E0,-2.043780684E-1,-1.728463173E-2,-1.770029068E-1,2.709228347E-1
7.606843867E0,-1.980570555E-1,-6.717014313E-2,-1.468915939E-1,2.555691017E-1
7.611864336E0,-2.061637044E-1,-1.354574859E-1,-8.852100372E-2,2.620842834E-1
7.616903711E0,-2.141330838E-1,-1.869626343E-1,-2.112388611E-3,2.842753356E-1
7.621924179E0,-2.193986177E-1,-1.696624458E-1,4.319381714E-2,2.806898730E-1
7.626944700E0,-1.815136075E-1,-1.197396219E-1,1.617565155E-1,2.710164885E-1
7.631965169E0,-1.197323799E-1,-5.642914772E-2,1.866636276E-1,2.288305080E-1
7.636985690E0,-1.410435438E-1,-8.256435394E-3,1.424341202E-1,2.006213562E-1
7.642006159E0,-9.984689951E-2,-7.886826992E-3,9.138202667E-2,1.355812678E-1
7.647036211E0,2.002668381E-2,7.349729538E-2,6.680679321E-2,1.013216073E-1
7.652056679E0,9.667646885E-2,1.165238619E-1,6.374168396E-2,1.642776683E-1
7.657077200E0,1.397551298E-1,1.667060852E-1,9.628009796E-2,2.378913038E-1
7.662097669E0,1.683918238E-1,1.808621883E-1,1.047725677E-1,2.684105595E-1
7.667118190E0,1.348276138E-1,1.166988015E-1,1.274585724E-1,2.191866406E-1
7.672138659E0,1.035674810E-1,1.123853922E-1,8.823204041E-2,1.764698061E-1
7.677150481E0,5.779027939E-2,8.668476343E-2,4.254341125E-3,1.042691902E-1
7.682170950E0,-2.614039183E-2,-9.842216969E-3,-1.122398376E-1,1.156631768E-1
7.687191471E0,-1.338642240E-1,-3.670477867E-2,-1.896772385E-1,2.350411156E-1
7.692211940E0,-2.082356811E-1,-6.567099690E-2,-2.307548523E-1,3.176831449E-1
7.697232461E0,-2.848201990E-1,-7.763513923E-2,-2.286891937E-1,3.734280492E-1
7.702252929E0,-3.443213105E-1,-8.929088712E-2,-2.147541046E-1,4.155109539E-1
7.707292669E0,-3.393863440E-1,-1.338272691E-1,-1.534194946E-1,3.957655490E-1
7.712313138E0,-3.271243572E-1,-1.827504039E-1,-1.282529831E-1,3.960516164E-1
7.717333659E0,-3.573405743E-1,-2.266629040E-1,-2.968502045E-2,4.242046187E-1
7.722354127E0,-3.108465672E-1,-2.371626198E-1,1.084117889E-1,4.057398336E-1
7.727374648E0,-2.593812346E-1,-2.127947807E-1,2.453403473E-1,4.156346107E-1
7.732395117E0,-2.456911802E-1,-1.751319468E-1,3.454666138E-1,4.586747607E-1
7.737418034E0,-2.242306471E-1,-8.868837357E-2,3.734550476E-1,4.445376062E-1
7.742438502E0,-1.978408694E-1,-2.934500575E-2,2.871618271E-1,3.499486447E-1
7.747459023E0,-1.452319026E-1,6.999588013E-2,1.944236755E-1,2.525713649E-1
7.752479492E0,-4.766434431E-2,1.405662298E-1,1.214065552E-1,1.917558508E-1
7.757500013E0,-9.973764420E-3,1.969417930E-1,4.893112183E-2,2.031743106E-1
7.762520481E0,-1.144647598E-3,2.060926557E-1,2.928543091E-2,2.081661101E-1
7.767558763E0,-4.471719265E-3,2.634675503E-1,1.928520203E-2,2.642102673E-1
7.772579231E0,-7.227832079E-2,2.281772494E-1,1.413154602E-2,2.397680408E-1
7.777599752E0,-1.448054910E-1,1.507637501E-1,-2.420043945E-2,2.104376388E-1
7.782620221E0,-1.935971379E-1,1.406706572E-1,-8.353614807E-2,2.534686837E-1
7.787640742E0,-2.545030713E-1,7.601398230E-2,-1.185560226E-1,2.908701932E-1
7.792661211E0,-3.249481916E-1,6.916797161E-2,-1.199855804E-1,3.532309090E-1
7.797683502E0,-3.689500093E-1,5.048143864E-2,-1.451282501E-1,3.996682299E-1
7.802703971E0,-3.510997891E-1,-7.237789035E-2,-1.842956543E-1,4.030812687E-1
7.807724492E0,-3.785502315E-1,-1.659302711E-1,-1.684846878E-1,4.463409265E-1
7.812744961E0,-4.507186413E-1,-1.806322932E-1,-1.741876602E-1,5.158649629E-1
7.817765481E0,-4.457743168E-1,-2.192792892E-1,-1.086091995E-1,5.085214906E-1
7.822785950E0,-3.619219661E-1,-1.726769507E-1,-4.122734070E-2,4.031185092E-1
7.827817929E0,-2.589851022E-1,-1.080267131E-1,6.592845917E-2,2.882526941E-1
7.832838398E0,-1.512244344E-1,-1.323277354E-1,1.507444382E-1,2.512037913E-1
7.837858919E0,-6.258785725E-2,-9.729841352E-2,1.920299530E-1,2.241868060E-1
7.842879388E0,-8.404254913E-5,-8.169114590E-2,2.329063416E-1,2.468173704E-1
7.847899909E0,3.154653311E-2,-6.871527433E-2,2.353878021E-1,2.472334728E-1
7.852920377E0,3.531634808E-3,-1.774719357E-2,2.568483353E-1,2.574849562E-1
7.857961992E0,-4.591739178E-2,3.990274668E-2,2.401523590E-1,2.477373440E-1
7.862982461E0,-9.322226048E-2,9.238964319E-2,1.903982162E-1,2.312524957E-1
7.868002981E0,-1.525907516E-1,1.755472720E-1,1.221008301E-1,2.626963930E-1
7.873023450E0,-1.884557009E-1,2.585693598E-1,-7.148551941E-2,3.278472884E-1
7.878043971E0,-2.199085355E-1,2.917681932E-1,-1.660375595E-1,4.013189676E-1
7.883064440E0,-2.278311849E-1,2.611081004E-1,-1.196250916E-1,3.665987608E-1
7.888094179E0,-1.908324361E-1,2.220244110E-1,-9.023952484E-2,3.063576824E-1
7.893114648E0,-1.564317942E-1,8.394128084E-2,-1.300201416E-1,2.200506353E-1
7.898135169E0,-1.077090502E-1,-7.884389162E-2,-1.338825226E-1,1.890558875E-1
7.903155638E0,-9.714519978E-2,-2.001337707E-1,-7.120800018E-2,2.335835938E-1
7.908176159E0,-7.695066929E-2,-3.166058660E-1,4.323196411E-2,3.286786920E-1
7.913196627E0,-1.279839277E-1,-4.074706435E-1,6.412410736E-2,4.318843737E-1
7.918229127E0,-2.165932059E-1,-4.421790838E-1,7.066345215E-2,4.974216345E-1
7.923249596E0,-1.406522393E-1,-4.424754381E-1,9.623241425E-2,4.741605670E-1
7.928270117E0,-1.275593042E-2,-3.280586004E-1,1.572685242E-1,3.640309709E-1
7.933290586E0,5.507475138E-2,-2.324205935E-1,2.178144455E-1,3.232579360E-1
7.938311106E0,2.985763550E-2,-1.810348928E-1,2.493677139E-1,3.095954902E-1
7.943331575E0,4.080218077E-2,-1.327340603E-1,1.499881744E-1,2.044005900E-1
7.948363711E0,2.574872971E-2,-7.738918066E-2,9.891319275E-2,1.282025821E-1
7.953384179E0,4.170298576E-2,3.047835827E-2,3.097534180E-3,5.174615022E-2
7.958404700E0,6.682133675E-2,1.693040133E-1,-3.968334198E-2,1.862893115E-1
7.963425169E0,3.688764572E-2,2.557902634E-1,-8.451366425E-2,2.719042418E-1
7.968445690E0,-1.930087805E-2,2.832711339E-1,-8.860492706E-2,2.974321642E-1
7.973466159E0,-1.610434055E-2,3.494178355E-1,-1.140403748E-1,3.679094734E-1
7.978493450E0,2.233654261E-2,3.826850951E-1,-9.414005280E-2,3.947266810E-1
7.983513919E0,2.699029446E-2,3.405908346E-1,-7.205772400E-2,3.491746099E-1
7.988534440E0,-9.140014648E-3,3.207929730E-1,-9.528923035E-2,3.347711290E-1
7.993554909E0,3.083753586E-2,2.538618147E-1,-8.981132507E-2,2.710403083E-1
7.998575429E0,2.039092779E-2,1.899113357E-1,-5.110549927E-2,1.977217171E-1
8.003595898E0,9.834766388E-3,1.144413948E-1,-2.219486237E-2,1.169878942E-1
8.008628450E0,-3.150916100E-2,8.188313246E-2,-2.676010132E-2,9.172664624E-2
