"Time (s)","Linear Acceleration x (m/s^2)","Linear Acceleration y (m/s^2)","Linear Acceleration z (m/s^2)","Absolute acceleration (m/s^2)"
3.745699300E-2,0.000000000E0,0.000000000E0,0.000000000E0,0.000000000E0
4.247772200E-2,-2.143418789E-2,-5.728006363E-4,-3.242111206E-2,3.887005297E-2
4.749850400E-2,-3.147798777E-2,-1.176011562E-2,5.999374390E-2,6.876345934E-2
5.249548300E-2,-3.412884474E-2,-2.136707306E-3,2.179431915E-2,4.055041194E-2
5.751626400E-2,-1.761162281E-2,2.348971367E-2,2.135276794E-3,2.943629245E-2
6.253699300E-2,-6.729960442E-3,8.146405220E-3,-6.132125854E-3,1.221717042E-2
6.755777400E-2,-1.026016474E-2,-1.284670830E-2,-4.210281372E-2,4.519906877E-2
7.257860800E-2,1.139587164E-2,-1.075577736E-2,-2.626514435E-2,3.058448045E-2
7.759933700E-2,1.365327835E-2,-5.508661270E-4,-2.324295044E-2,2.696201417E-2
8.263959700E-2,2.788543701E-3,2.118468285E-3,-5.720138550E-3,6.707001482E-3
8.766037900E-2,1.249545813E-2,6.735324860E-5,1.231384277E-2,1.754342424E-2
9.268116000E-2,2.829456329E-2,-2.820277214E-2,-2.377033234E-2,4.648663644E-2
9.770194100E-2,8.499366045E-2,-1.459753513E-2,-5.059242249E-2,9.998301637E-2
1.027227220E-1,1.004372239E-1,-1.994025707E-2,-3.800392151E-2,1.092224695E-1
1.077434510E-1,9.316033125E-2,-1.856184006E-2,3.164291382E-2,1.001232402E-1
1.127578790E-1,7.788181305E-2,2.767562866E-3,4.989910126E-2,9.253732498E-2
1.177786600E-1,7.986301184E-2,-2.009046078E-2,-4.899978638E-3,8.249689124E-2
1.227994410E-1,5.737674236E-2,5.814194679E-3,-2.953052521E-2,6.479156846E-2
1.278202220E-1,3.861951828E-2,3.501069546E-2,-5.975723267E-2,7.929781110E-2
1.328410040E-1,4.818439484E-4,8.279442787E-3,-1.126098633E-2,1.398539093E-2
1.378617330E-1,-3.821247816E-2,1.934754848E-2,4.631137848E-2,6.308141482E-2
1.429051180E-1,-5.230516195E-2,3.900945187E-2,4.190540314E-2,7.754759902E-2
1.479258990E-1,-7.754316926E-2,5.298972130E-3,-1.152038574E-3,7.773255044E-2
1.529466810E-1,-7.213869691E-2,-2.440547943E-2,-5.640983582E-3,7.636386393E-2
1.579674620E-1,-5.112123489E-2,-3.661406040E-2,-1.221752167E-2,6.405652123E-2
1.629882430E-1,-3.330397606E-2,-1.161062717E-2,1.598262787E-2,3.872216262E-2
1.680089720E-1,-3.243690729E-2,-8.408784866E-3,9.851741791E-2,1.040602818E-1
1.730274100E-1,-2.472221851E-2,-1.241576672E-2,1.181612015E-1,1.213565362E-1
1.780481910E-1,-1.498585939E-2,-2.605128288E-2,1.372117996E-1,1.404646691E-1
1.830689720E-1,2.008801699E-2,-2.320194244E-2,8.165836334E-2,8.723500939E-2
1.880897540E-1,4.028111696E-2,-2.516281605E-2,3.029060364E-2,5.633166395E-2
1.931105350E-1,5.770927668E-2,-3.400313854E-2,-1.480007172E-2,6.859749389E-2
1.981312640E-1,3.068184853E-2,3.399682045E-2,-9.773254395E-3,4.682601981E-2
2.031729310E-1,3.469753265E-2,2.567267418E-2,-7.222175598E-3,4.376259581E-2
2.081937120E-1,1.302981377E-2,6.880521774E-2,-9.536743164E-5,7.002815955E-2
2.132144930E-1,-5.760371685E-3,8.755123615E-2,-2.473831177E-3,8.777539903E-2
2.182352740E-1,-2.988934517E-3,1.012386084E-1,-5.140399933E-2,1.135806352E-1
2.232560560E-1,-2.682387829E-3,9.394884109E-2,-8.737945557E-2,1.283306246E-1
2.282767850E-1,-1.648473740E-2,9.198772907E-2,-1.154308319E-1,1.485185706E-1
2.332938160E-1,-2.070522308E-2,6.464970112E-2,-1.124610901E-1,1.313612839E-1
2.383145970E-1,-2.487313747E-2,5.926156044E-2,-5.351543427E-2,8.363317056E-2
2.433353790E-1,-2.666890621E-2,5.876469612E-2,-3.107357025E-2,7.162462452E-2
2.483561600E-1,4.014253616E-3,3.028595448E-2,-4.658317566E-2,5.570767923E-2
2.533769410E-1,-1.126825809E-3,3.747904301E-2,-2.432155609E-2,4.469324884E-2
2.583976700E-1,-2.035361528E-2,1.408517361E-2,-1.895427704E-2,3.117573397E-2
2.634251700E-1,-1.796728373E-2,-3.997683525E-3,-1.370525360E-2,2.294861073E-2
2.684459510E-1,7.785737514E-3,-2.858877182E-2,-2.027797699E-2,3.590448348E-2
2.734667330E-1,3.333109617E-2,-1.993536949E-2,6.085395813E-3,3.931174088E-2
2.784874620E-1,3.020352125E-2,-4.687297344E-2,2.719306946E-2,6.203862798E-2
2.835082950E-1,1.765877008E-2,-4.062879086E-2,7.838916779E-2,9.004105971E-2
2.885290240E-1,2.207493782E-2,-5.805361271E-2,8.162021637E-2,1.025640510E-1
2.935577220E-1,4.061359167E-2,-6.602227688E-2,1.106252670E-1,1.350790679E-1
2.985785040E-1,3.532087803E-2,-4.581201077E-2,1.108999252E-1,1.250803669E-1
3.035992850E-1,2.540963888E-2,-9.648323059E-3,9.708881378E-2,1.008215138E-1
3.086200660E-1,-8.274316788E-4,-1.878118515E-2,7.181167603E-2,7.423162650E-2
3.136408470E-1,-1.487016678E-2,-2.790462971E-2,7.287311554E-2,7.943727832E-2
3.186615760E-1,-3.343617916E-2,-1.628875732E-3,4.804611206E-2,5.855817788E-2
3.237011600E-1,-1.408332586E-2,7.762074471E-3,1.660919189E-2,2.311828546E-2
3.287219410E-1,-2.802431583E-2,2.869844437E-3,-4.725837708E-2,5.501774704E-2
3.337427220E-1,-1.127201319E-2,7.584691048E-3,-5.351924896E-2,5.521680749E-2
3.387635040E-1,-6.469488144E-3,1.944947243E-2,-5.260944366E-2,5.646140113E-2
3.437842850E-1,-8.765459061E-3,3.363859653E-2,-5.171012878E-2,6.230831299E-2
3.488050140E-1,1.018315554E-2,4.273951054E-2,1.515007019E-2,4.647458493E-2
3.538198060E-1,5.859732628E-4,3.745532036E-2,7.781982422E-4,3.746798607E-2
3.588405870E-1,9.954452515E-3,3.246653080E-2,-2.749443054E-2,4.369336858E-2
3.638613680E-1,7.431864738E-3,1.812112331E-2,-5.534744263E-2,5.871070711E-2
3.688821490E-1,4.846215248E-3,4.190361500E-2,-8.041191101E-2,9.080459341E-2
3.739029310E-1,-1.052021980E-4,2.075982094E-2,-5.788326263E-2,6.149352264E-2
3.789236600E-1,-2.572774887E-3,2.353477478E-2,-3.805732727E-2,4.482036316E-2
3.839579310E-1,1.142698526E-2,1.909303665E-2,-2.325344086E-2,3.218450796E-2
3.889787120E-1,1.085674763E-2,-4.075407982E-3,-2.044582367E-2,2.350552328E-2
3.939994930E-1,8.204340935E-3,-1.520836353E-2,3.550529480E-3,1.764119585E-2
3.990202740E-1,1.975917816E-2,-9.604811668E-3,-1.126289368E-3,2.199877398E-2
4.040410560E-1,1.929461956E-2,-2.781248093E-2,1.338958740E-3,3.387638189E-2
4.090617850E-1,4.665136337E-3,-5.287027359E-2,8.498191833E-3,5.375173105E-2
4.140839720E-1,2.096748352E-2,-5.632889271E-2,2.738475800E-2,6.604925805E-2
4.191047540E-1,1.794457436E-3,-5.523192883E-2,3.889846802E-2,6.757867159E-2
4.241255350E-1,-5.139708519E-4,-3.307473660E-2,4.787731171E-2,5.819312110E-2
4.291463160E-1,-5.239248276E-4,-3.958237171E-2,7.804203033E-2,8.750769764E-2
4.341670970E-1,-2.854943275E-3,-4.365265369E-2,6.762504578E-2,8.054099386E-2
4.391878260E-1,-2.166771889E-2,-3.353524208E-2,3.840923309E-2,5.540191053E-2
4.442382430E-1,-2.379328012E-2,-9.554624557E-3,4.502964020E-2,5.181775300E-2
4.492590240E-1,-3.299647570E-2,-1.431500912E-2,4.920291901E-2,6.094763435E-2
4.542798060E-1,-6.758153439E-3,-1.676249504E-2,-5.846023560E-3,1.899552235E-2
4.593005870E-1,4.915177822E-3,1.627492905E-2,-3.657913208E-2,4.033689617E-2
4.643213680E-1,1.872521639E-2,2.294051647E-2,-3.143119812E-2,4.318357605E-2
4.693420970E-1,2.038490772E-2,2.237737179E-2,-7.133579254E-2,7.749249337E-2
4.743477740E-1,3.390902281E-2,7.660269737E-3,-5.632305145E-2,6.618751910E-2
4.793685560E-1,3.555101156E-2,4.552912712E-2,-5.092620850E-2,7.700814601E-2
4.843893370E-1,2.538621426E-2,4.039442539E-2,-6.927871704E-2,8.411724028E-2
4.894101180E-1,5.976140499E-3,2.827095985E-2,-5.900859833E-2,6.570369931E-2
4.944308990E-1,1.768368483E-2,6.907820702E-3,-3.226280212E-2,3.743419689E-2
4.994516290E-1,2.700054646E-2,1.431500912E-2,-2.238845825E-2,3.788392875E-2
5.044760040E-1,3.106474876E-3,1.222276688E-2,3.241252899E-2,3.477956659E-2
5.094967850E-1,-1.477420330E-3,5.664825439E-4,5.580520630E-2,5.582763405E-2
5.145175660E-1,-2.509480715E-2,1.499891281E-2,5.761909485E-2,6.461173905E-2
5.195383470E-1,-2.249550819E-2,5.627512932E-3,7.128620148E-2,7.496291958E-2
5.245590760E-1,-1.274681091E-2,3.265738487E-3,7.530784607E-2,7.644879277E-2
5.295798580E-1,-4.810112715E-2,-8.660078049E-3,9.587955475E-2,1.076178628E-1
5.346209510E-1,-4.288679361E-2,-2.531135082E-2,9.015941620E-2,1.029983586E-1
5.396605350E-1,-3.531867266E-2,-1.334476471E-2,5.604076385E-2,6.757261721E-2
5.446887640E-1,-8.786737919E-3,1.036953926E-2,5.546760559E-2,5.710857534E-2
5.497073060E-1,-6.307899952E-3,4.091107845E-2,2.406311035E-2,4.788046806E-2
5.547319410E-1,-6.277501583E-3,4.032051563E-2,-2.290725708E-3,4.087050809E-2
5.597526700E-1,-3.964602947E-3,1.834034920E-3,-3.312492371E-2,3.341170949E-2
5.647734510E-1,2.204138041E-2,1.606333256E-2,-7.551574707E-2,8.028998168E-2
5.697942330E-1,2.406835556E-2,6.121468544E-2,-1.127443314E-1,1.305289535E-1
5.748149620E-1,3.737211227E-5,3.960943222E-2,-9.504032135E-2,1.029639315E-1
5.798357430E-1,4.760622978E-3,4.689407349E-2,-9.172248840E-2,1.031248396E-1
5.848565240E-1,3.084272146E-2,3.986823559E-2,-8.607387543E-2,9.974698846E-2
5.898799100E-1,4.428386688E-3,1.154983044E-2,-9.472179413E-2,9.552605652E-2
5.949006910E-1,-1.467895508E-2,4.851818085E-3,-4.394531250E-2,4.658543068E-2
5.999214720E-1,-3.836709261E-2,-2.325832844E-2,-4.112148285E-2,6.086016750E-2
6.049422540E-1,-2.333521843E-3,-3.212785721E-2,4.405975342E-3,3.251241535E-2
6.099629830E-1,-7.072269917E-3,-4.091656208E-2,4.004573822E-2,5.768746141E-2
6.149837640E-1,-4.280525446E-2,-3.094625473E-2,7.534885406E-2,9.201853237E-2
6.200120450E-1,-1.649248600E-2,-3.330278397E-2,7.230663300E-2,8.129776559E-2
6.250328260E-1,-2.598011494E-2,-4.772377014E-2,1.001434326E-1,1.139352084E-1
6.300536080E-1,-5.448222160E-2,-1.926434040E-2,8.262729645E-2,1.008300422E-1
6.350743890E-1,-4.473525286E-2,-2.672517300E-2,7.950878143E-2,9.506378935E-2
6.400951180E-1,2.970039845E-3,1.110553741E-2,5.267238617E-2,5.391228397E-2
6.451158990E-1,-4.314780235E-3,4.138815403E-2,3.554534912E-2,5.472721870E-2
6.501298060E-1,7.517039776E-3,3.129255772E-2,2.571868896E-2,4.119685689E-2
6.551505870E-1,7.379412651E-3,1.901149750E-2,1.836299896E-2,2.744253084E-2
6.601713680E-1,2.386480570E-2,3.079140186E-2,1.584720612E-2,4.205678686E-2
6.651921490E-1,4.027122259E-2,4.252779484E-2,-3.177833557E-2,6.663518076E-2
6.702129310E-1,5.167305470E-2,3.298687935E-2,-5.046749115E-2,7.940533013E-2
6.752336600E-1,3.933441639E-2,3.550946712E-2,-8.562278748E-2,1.006944899E-1
6.802553260E-1,2.250236273E-2,1.905834675E-2,-7.297515869E-2,7.870800909E-2
6.852761080E-1,2.496963739E-2,3.362607956E-2,-6.757068634E-2,7.949838785E-2
6.902968890E-1,-1.074022055E-2,2.991795540E-3,-7.169532776E-2,7.255703412E-2
6.953176700E-1,-2.950316668E-2,1.076579094E-3,-7.341766357E-2,7.913121502E-2
7.003384510E-1,-3.387027979E-2,-1.275789738E-2,-3.237342834E-2,4.855922838E-2
7.053591810E-1,-2.395462990E-2,-1.480877399E-2,1.176834106E-3,2.818703637E-2
7.103887120E-1,-1.902049780E-2,-2.422392368E-2,-8.339881897E-3,3.190817208E-2
7.154094930E-1,-3.803074360E-2,-2.173149586E-2,-1.145362854E-3,4.381674596E-2
7.204302740E-1,-2.363187075E-2,-5.975008011E-2,4.635906219E-2,7.923193823E-2
7.254510560E-1,-2.593702078E-2,-4.292070866E-2,7.444667816E-2,8.976204191E-2
7.304718370E-1,-3.792458773E-2,-9.702920914E-3,6.666660309E-2,7.731013514E-2
7.354925660E-1,-2.849769592E-2,-2.847433090E-3,7.558917999E-2,8.083285644E-2
7.405213680E-1,2.274513245E-3,1.344954967E-2,9.156036377E-2,9.257085940E-2
7.455421490E-1,2.107483149E-2,1.050674915E-2,7.649421692E-2,8.003690100E-2
7.505629310E-1,1.125675440E-2,2.937555313E-3,4.256057739E-2,4.412195031E-2
7.555837120E-1,3.240245581E-2,3.116762638E-2,-1.008129120E-2,4.607572581E-2
7.606044930E-1,4.630380869E-2,2.621757984E-2,-3.374004364E-2,6.300630712E-2
7.656252740E-1,3.159654140E-2,3.339886665E-2,-5.004692078E-2,6.795969395E-2
7.706737640E-1,1.235723495E-2,2.151429653E-2,-3.296756744E-2,4.126047399E-2
7.756945450E-1,-8.935749531E-3,3.596460819E-2,-8.254051208E-2,9.047782489E-2
7.807153260E-1,-1.104712486E-2,2.416348457E-2,-5.330657959E-2,5.956093000E-2
7.857361080E-1,-6.052076817E-3,2.424108982E-2,-6.471252441E-2,6.936835651E-2
7.907568890E-1,-1.053929329E-3,2.436661720E-2,-6.651687622E-2,7.084728381E-2
7.957776700E-1,-5.620241165E-3,7.783174515E-4,-6.592369080E-2,6.616740812E-2
8.008191810E-1,-2.454257011E-2,-1.558279991E-2,-2.733135223E-2,3.990193248E-2
8.058400140E-1,-4.093176126E-2,-5.793964863E-2,-2.469348907E-2,7.511444845E-2
8.108607950E-1,-4.551988840E-2,-4.298520088E-2,-3.067970276E-3,6.268333253E-2
8.158815240E-1,-5.011451244E-2,-1.410543919E-2,5.160999298E-2,7.330770183E-2
8.209023060E-1,-4.058593512E-2,-1.656067371E-2,5.117607117E-2,6.738296746E-2
8.259230870E-1,-2.637898922E-2,-4.052686691E-2,4.835033417E-2,6.838152403E-2
8.309193890E-1,-1.234662533E-2,9.449601173E-3,6.219291687E-2,6.410688752E-2
8.359401180E-1,-7.773935795E-3,-1.473343372E-2,3.313827515E-2,3.708980219E-2
8.409608990E-1,1.344776154E-2,1.723766327E-3,3.046035767E-2,3.334137144E-2
8.459816810E-1,2.270442247E-2,1.085960865E-2,7.767868042E-2,8.165414436E-2
8.510025140E-1,1.287269592E-2,1.258325577E-2,8.171653748E-2,8.367578576E-2
8.560232430E-1,3.412187099E-2,4.275345802E-2,8.095645905E-2,9.770418883E-2
8.610652220E-1,3.862375021E-2,2.294182777E-2,2.558326721E-2,5.169743807E-2
8.660859510E-1,1.937049627E-2,5.821585655E-3,-1.505851746E-2,2.521638224E-2
8.711067850E-1,3.125596046E-2,2.235627174E-2,-2.920246124E-2,4.826511881E-2
8.761275140E-1,2.901607752E-2,6.262099743E-2,-3.847503662E-2,7.901677364E-2
8.811483470E-1,1.245212555E-2,4.807341099E-2,-2.864074707E-2,5.732713727E-2
8.861690760E-1,1.010417938E-2,3.838920593E-2,-5.688667297E-2,6.936799792E-2
8.911818890E-1,-2.089226246E-2,2.640676498E-2,-4.450511932E-2,5.580779080E-2
8.962026700E-1,-2.544111013E-2,3.828287125E-2,-4.410648346E-2,6.370408306E-2
9.012234510E-1,-2.287697792E-2,3.590989113E-2,-6.982517242E-2,8.178282891E-2
9.062442330E-1,1.097142696E-3,1.950967312E-2,-5.492210388E-2,5.829467010E-2
9.112650140E-1,1.051521301E-2,-1.803040504E-2,-7.813262939E-2,8.087257253E-2
9.162857430E-1,7.983863354E-3,-5.162239075E-3,-2.510452271E-2,2.684451241E-2
9.213158990E-1,-2.070218325E-2,-2.090311050E-2,3.729820251E-3,2.965521841E-2
9.263366810E-1,1.024633646E-2,-5.820071697E-2,2.753162384E-2,6.519433394E-2
9.313574620E-1,-8.839368820E-3,-5.743360519E-2,7.960128784E-2,9.855515447E-2
9.363782430E-1,1.021522284E-2,-3.076040745E-2,9.557628632E-2,1.009226434E-1
9.413990240E-1,2.446305752E-2,-7.578194141E-2,7.812786102E-2,1.115585339E-1
9.464197540E-1,2.804338932E-3,-7.302069664E-2,7.744884491E-2,1.064810313E-1
9.514493370E-1,3.371238708E-4,-4.678285122E-2,6.961441040E-2,8.387439989E-2
9.564701180E-1,3.246068954E-4,-6.661295891E-3,5.231952667E-2,5.274287728E-2
9.614908990E-1,3.122091293E-4,2.295255661E-3,1.617145538E-2,1.633651255E-2
9.665116290E-1,-2.340388298E-2,1.375925541E-2,-5.396842957E-3,2.768004266E-2
9.715324620E-1,-1.372325420E-2,2.274906635E-2,-2.203273773E-2,3.451505842E-2
9.765531910E-1,-8.991241455E-3,4.844152927E-2,-2.425003052E-2,5.491346066E-2
9.815933990E-1,-4.240512848E-3,5.744862556E-2,-5.493736267E-2,7.960176095E-2
9.866141810E-1,7.604360580E-3,6.163299084E-2,-3.073215485E-2,6.928865131E-2
9.916349620E-1,7.524430752E-3,3.737914562E-2,-5.422782898E-2,6.629083663E-2
9.966557430E-1,1.463693380E-2,6.347763538E-2,-4.186439514E-2,7.743563524E-2
1.001676472E0,-1.157408953E-2,4.427194595E-2,-1.296901703E-2,4.756217141E-2
1.006697254E0,2.177703381E-2,6.328105927E-3,-5.676269531E-3,2.337742847E-2
1.011733660E0,3.595626354E-2,-2.633452415E-3,-5.556106567E-3,3.647818910E-2
1.016754441E0,1.100897789E-4,-4.404544830E-3,-1.256465912E-2,1.331475849E-2
1.021775222E0,1.203554869E-2,-1.813566685E-2,-2.895355225E-3,2.195768490E-2
1.026796004E0,-2.172887325E-3,-1.295745373E-2,3.516578674E-2,3.753997341E-2
1.031816785E0,-2.813386917E-2,-3.405332565E-2,4.913997650E-2,6.607481270E-2
1.036837514E0,-1.603823900E-2,-4.563212395E-2,3.923034668E-2,6.227789292E-2
1.041863816E0,1.257836819E-2,-4.074692726E-2,3.174591064E-2,5.316324172E-2
1.046884597E0,7.654368877E-3,-5.495500565E-2,2.194404602E-2,5.966727046E-2
1.051905379E0,-1.380586624E-2,-1.926147938E-2,3.290176392E-4,2.370052284E-2
1.056926160E0,-1.881241798E-3,-2.900075912E-2,7.404327393E-3,2.999011778E-2
1.061946941E0,1.712214947E-2,6.579637527E-3,4.293823242E-2,4.669209179E-2
1.066967670E0,9.681522846E-3,2.761030197E-2,4.017543793E-2,4.970036692E-2
1.071991368E0,7.091760635E-3,2.238011360E-2,2.793788910E-2,3.649230331E-2
1.077012358E0,9.422719479E-3,3.619503975E-2,2.767086029E-2,4.652467146E-2
1.082033347E0,-1.366734505E-4,4.752218723E-2,1.275062561E-3,4.753948615E-2
1.087054337E0,1.182186604E-2,5.669212341E-2,-2.011108398E-2,6.130423373E-2
1.092075379E0,2.596688271E-2,6.341612339E-2,-4.606533051E-2,8.257056605E-2
1.097096420E0,-7.420420647E-3,4.648029804E-2,-4.803276062E-2,6.725047837E-2
1.102128816E0,2.250969410E-3,3.708040714E-2,-3.094482422E-2,4.834879112E-2
1.107149858E0,1.182776690E-2,3.513622284E-2,-7.335376740E-2,8.219017834E-2
1.112170847E0,-1.913148165E-2,9.289145470E-3,-3.465938568E-2,4.066417132E-2
1.117191837E0,2.253055573E-5,2.567529678E-3,-5.799293518E-3,6.342280472E-3
1.122212931E0,-9.547948837E-3,-6.476402283E-3,3.818511963E-3,1.215270123E-2
1.127233868E0,-9.971857071E-5,-2.510821819E-2,2.996826172E-2,3.909641000E-2
1.132256368E0,-1.918500662E-2,-2.013874054E-2,3.684997559E-2,4.616875621E-2
1.137277358E0,2.389669418E-3,-4.143869877E-2,1.752471924E-2,4.505543319E-2
1.142298347E0,1.655483246E-2,-3.173089027E-2,1.974010468E-2,4.087277343E-2
1.147319337E0,-9.833812714E-3,-7.798910141E-3,3.144931793E-2,3.386128276E-2
1.152340431E0,-9.820044041E-3,-2.925348282E-2,3.117275238E-2,4.386274060E-2
1.157361368E0,-7.372379303E-3,-5.597114563E-3,4.987239838E-2,5.072411446E-2
1.162391368E0,6.705164909E-3,1.072561741E-2,4.229640961E-2,4.414730310E-2
1.167412410E0,-1.492249966E-2,5.426764488E-3,2.051353455E-2,2.594100747E-2
1.172433399E0,-1.491791010E-2,2.631211281E-2,1.316356659E-2,3.298713094E-2
1.177454389E0,4.201054573E-3,3.282487392E-2,-2.263164520E-2,4.009130295E-2
1.182475431E0,1.121073961E-2,3.245735168E-2,-2.245044708E-2,4.102661252E-2
1.187496420E0,-1.492702961E-2,2.987813950E-2,-3.651332855E-2,4.948477134E-2
1.192528139E0,1.881837845E-3,4.168617725E-2,-2.906131744E-2,5.085114413E-2
1.197549181E0,9.072542191E-3,5.100774765E-2,-3.117752075E-2,6.046601643E-2
1.202570170E0,6.766438484E-3,4.145979881E-2,-3.325176239E-2,5.357592099E-2
1.207591160E0,2.000808716E-3,4.154515266E-2,-3.054428101E-2,5.160383753E-2
1.212612201E0,-3.048181534E-4,1.301717758E-2,-2.074909210E-2,2.449621704E-2
1.217633191E0,-2.481102943E-3,-3.444075584E-3,1.033115387E-2,1.116916598E-2
1.222661472E0,2.611899376E-2,-2.225542068E-2,-3.990173340E-3,3.454601378E-2
1.227682514E0,-1.925039291E-2,-1.239776611E-2,7.944107056E-3,2.423615210E-2
1.232703504E0,-4.808604717E-3,-2.416014671E-2,1.262950897E-2,2.768284424E-2
1.237724493E0,-1.903831959E-2,-3.571808338E-2,-1.358985901E-2,4.269570659E-2
1.242745587E0,-1.651382446E-2,-4.474961758E-2,8.001327515E-4,4.770613047E-2
1.247766576E0,2.559900284E-3,-3.253543377E-2,2.217292786E-2,3.945562406E-2
1.252788035E0,9.590208530E-3,-1.102709770E-2,2.672576904E-2,3.046039583E-2
1.257809024E0,2.153813839E-3,-2.527952194E-2,1.700115204E-2,3.054066657E-2
1.262830066E0,4.274725914E-3,-2.036023140E-2,1.686763763E-2,2.678300774E-2
1.267851056E0,1.842415333E-2,-3.649830818E-3,9.593009949E-3,2.109019987E-2
1.272872097E0,2.296042442E-2,-3.652811050E-3,-1.424312592E-2,2.726519309E-2
1.277893035E0,1.077157259E-2,-1.088845730E-2,-4.026603699E-2,4.308061064E-2
1.282927410E0,-3.601729870E-3,1.286327839E-2,-4.944324493E-2,5.121592388E-2
1.287948451E0,-5.970656872E-3,1.271665096E-2,-3.715705872E-2,3.972416101E-2
1.292969493E0,1.539075375E-2,7.977962494E-3,1.180648804E-3,1.737576237E-2
1.297990483E0,-1.337057352E-2,1.272630692E-2,2.969360352E-2,3.496342680E-2
1.303011472E0,1.049339771E-2,2.214348316E-2,1.282024384E-2,2.765508803E-2
1.308032462E0,8.072316647E-3,5.457401276E-4,2.933597565E-2,3.043122731E-2
1.313040379E0,1.046001911E-2,5.201458931E-3,2.907466888E-2,3.133374452E-2
1.318061420E0,7.957220078E-4,2.743124962E-3,7.451057434E-3,7.979734642E-3
1.323082410E0,-6.477832794E-3,-9.202837944E-3,2.164363861E-2,2.439470509E-2
1.328103399E0,5.437254906E-3,1.464438438E-2,2.146625519E-2,2.654848106E-2
1.333124441E0,-6.495416164E-3,3.116917610E-2,2.604198456E-2,4.113262610E-2
1.338145431E0,-4.185497761E-3,2.865219116E-2,3.534984589E-2,4.569549271E-2
1.343174910E0,5.390048027E-4,3.566157818E-2,3.982639313E-2,5.346195165E-2
1.348195951E0,-1.605927944E-2,1.637530327E-2,-5.640029907E-3,2.361908023E-2
1.353216941E0,-1.108092070E-2,2.106785774E-3,1.543045044E-3,1.138447793E-2
1.358237931E0,2.231085300E-2,2.262234688E-3,-2.220344543E-2,3.155764340E-2
1.363258972E0,5.479574203E-3,-1.870846748E-2,-4.096508026E-2,4.536706173E-2
1.368279962E0,1.733285189E-2,5.469799042E-3,-2.059936523E-4,1.817660280E-2
1.373305899E0,1.474463940E-2,-4.181301594E-2,1.409053802E-2,4.652177936E-2
1.378326941E0,-1.864540577E-2,-2.233898640E-2,-2.164268494E-2,3.626413215E-2
1.383347931E0,-2.082371712E-2,-1.252937317E-2,-9.572029114E-3,2.611965023E-2
1.388368920E0,-1.603263617E-2,-2.666926384E-2,-1.185894012E-2,3.330059334E-2
1.393389962E0,-1.849746704E-2,-1.925361156E-2,-3.549385071E-2,4.441476425E-2
1.398410951E0,-4.448390007E-2,-7.248878479E-3,-2.094745636E-2,4.970069952E-2
1.403440066E0,-1.320308447E-2,-9.810209274E-3,7.699012756E-3,1.816139981E-2
1.408461108E0,-1.079249382E-2,-2.649998665E-2,3.612709045E-2,4.608572317E-2
1.413482097E0,-1.371800900E-3,4.308462143E-3,3.342151642E-2,3.372599062E-2
1.418503087E0,-3.810882568E-3,2.297937870E-2,3.310775757E-2,4.048083846E-2
1.423524129E0,-8.677423000E-3,2.738714218E-2,1.144027710E-2,3.092302002E-2
1.428545118E0,-6.466209888E-3,3.651535511E-2,1.371479034E-2,3.953831690E-2
1.433581004E0,6.390213966E-4,4.562187195E-2,-6.608963013E-4,4.563113337E-2
1.438602045E0,-1.585686207E-2,4.060888290E-2,-3.022193909E-3,4.369960070E-2
1.443623035E0,-8.511483669E-3,2.386319637E-2,-1.485061646E-2,2.936729992E-2
1.448644024E0,-1.323640347E-3,1.913785934E-2,9.058952332E-3,2.121495466E-2
1.453665066E0,1.767516136E-2,9.594559669E-3,1.612663269E-2,2.577857999E-2
1.458686056E0,-1.326751709E-2,4.985094070E-3,1.601696014E-2,2.138740716E-2
1.463715639E0,-1.206219196E-3,9.962201118E-3,1.661300659E-3,1.017154540E-2
1.468736681E0,-5.977451801E-3,-1.608777046E-2,-2.683544159E-2,3.185415536E-2
1.473757670E0,-5.841016769E-3,-8.657097816E-3,-2.421855927E-2,2.637425700E-2
1.478778660E0,1.324689388E-2,1.776754856E-2,-1.448726654E-2,2.647728973E-2
1.483799701E0,-1.296627522E-2,-3.541946411E-3,-2.384090424E-2,2.736893115E-2
1.488820691E0,-3.372609615E-3,8.432149887E-3,-4.628181458E-3,1.019292455E-2
1.493841108E0,-2.721279860E-2,-2.730464935E-2,3.342151642E-2,5.102036891E-2
1.498862149E0,-1.296943426E-2,-4.374825954E-2,2.364921570E-2,5.139457015E-2
1.503883139E0,-1.294320822E-2,-2.214956284E-2,4.719352722E-2,5.371553578E-2
1.508904129E0,1.553076506E-2,3.965616226E-3,1.114940643E-2,1.952536912E-2
1.513925170E0,-1.559358835E-2,-8.236408234E-3,2.527713776E-2,3.082096870E-2
1.518946160E0,-3.654062748E-3,1.194715500E-3,1.317501068E-2,1.372444630E-2
1.523986056E0,-5.912184715E-3,-2.276253700E-2,-1.547241211E-2,2.815106668E-2
1.529007097E0,-8.210241795E-3,2.009582520E-2,1.271247864E-3,2.174548992E-2
1.534028087E0,6.036400795E-3,2.221274376E-2,1.253128052E-3,2.305242828E-2
1.539049076E0,5.955815315E-3,1.966130733E-2,1.245498657E-3,2.058130241E-2
1.544070118E0,8.382022381E-3,4.564952850E-2,-1.143455505E-3,4.642677290E-2
1.549091108E0,3.216785192E-2,2.860987186E-2,1.311016083E-2,4.500190865E-2
1.554112670E0,-8.339226246E-3,1.413631439E-2,2.249717712E-2,2.784781962E-2
1.559133660E0,-5.749106407E-3,1.894259453E-2,2.469921112E-2,3.165320113E-2
1.564154649E0,-1.748538017E-2,3.078365326E-2,-4.002571106E-3,3.562853355E-2
1.569175639E0,-1.498758793E-2,1.644086838E-2,-1.819992065E-2,2.874312190E-2
1.574196733E0,-1.256901026E-2,1.651942730E-2,-1.088809967E-2,2.343975707E-2
1.579217670E0,-5.309462547E-3,4.825711250E-3,-5.114078522E-2,5.164162850E-2
1.584248399E0,1.875877380E-3,1.222836971E-2,-2.929306030E-2,3.179835410E-2
1.589269649E0,-7.754802704E-3,-1.140439510E-2,-5.256652832E-3,1.475905118E-2
1.594290899E0,-1.704728603E-2,-1.108491421E-2,2.331542969E-2,3.093694467E-2
1.599312097E0,-2.668559551E-3,-6.226301193E-3,6.495475769E-3,9.385054187E-3
1.604333347E0,-2.714455128E-3,-1.354384422E-2,1.354026794E-2,1.934277227E-2
1.609354545E0,4.404485226E-3,-8.619070053E-3,1.343727112E-2,1.656043821E-2
1.614379806E0,-7.547080517E-3,-1.566779613E-2,-1.517868042E-2,2.308312369E-2
1.619401056E0,-1.463425159E-2,-1.795220375E-2,-1.505565643E-2,2.762454941E-2
1.624422306E0,1.637375355E-2,1.542747021E-2,-1.255798340E-2,2.576450250E-2
1.629443504E0,1.860314608E-2,5.711674690E-3,6.540298462E-3,2.052987520E-2
1.634464754E0,-2.896726131E-3,5.627632141E-3,4.448795319E-2,4.493594602E-2
1.639485951E0,1.913487911E-3,2.449691296E-2,3.935146332E-2,4.639286417E-2
1.644515014E0,-7.562696934E-3,7.578849792E-3,1.000404358E-3,1.075333241E-2
1.649536264E0,-2.648264170E-2,1.707863808E-2,-1.087856293E-2,3.333696629E-2
1.654557514E0,-2.390295267E-2,1.230359077E-2,-2.740001678E-2,3.838607055E-2
1.659578712E0,-1.891076565E-2,-1.930952072E-3,-5.778312683E-3,1.986792719E-2
1.664599962E0,5.081951618E-3,3.626072407E-2,-2.709197998E-2,4.554823511E-2
1.669621212E0,-4.382789135E-3,3.602230549E-2,-1.023387909E-2,3.770341648E-2
1.674651941E0,7.535398006E-3,2.643942833E-3,-6.237030029E-4,8.010097518E-3
1.679673191E0,3.225803375E-4,4.132986069E-4,8.908271790E-3,8.923686463E-3
1.684694441E0,-3.063708544E-2,1.952946186E-2,2.548217773E-2,4.437760997E-2
1.689715639E0,1.003742218E-2,5.231738091E-3,-1.035022736E-2,1.533780081E-2
1.694736889E0,7.599592209E-3,-9.055972099E-3,1.111602783E-2,1.622746151E-2
1.699758087E0,-2.108311653E-2,-4.159808159E-3,-3.409671783E-2,4.030369677E-2
1.704771316E0,-4.230022430E-3,-8.751988411E-3,-2.667236328E-2,2.838847220E-2
1.709792566E0,4.949569702E-4,-8.506059647E-3,-1.217079163E-2,1.485685707E-2
1.714813816E0,1.714771986E-2,5.881667137E-3,-1.850128174E-4,1.812932802E-2
1.719835014E0,-1.632767916E-2,-1.230239868E-3,-1.204776764E-2,2.032868175E-2
1.724856264E0,-4.285812378E-3,-3.214144707E-2,-2.450942993E-3,3.251842445E-2
1.729877514E0,1.473760605E-2,-1.290559769E-2,4.692077637E-3,2.014366094E-2
1.734906004E0,5.147695541E-3,-7.979989052E-3,1.178646088E-2,1.513603827E-2
1.739927254E0,9.839355946E-3,-3.095746040E-3,-1.443386078E-2,1.774071323E-2
1.744948504E0,4.989743233E-3,3.970491886E-2,-2.432823181E-3,4.009110560E-2
1.749969701E0,2.156037092E-2,2.498114109E-2,3.320217133E-2,4.681122926E-2
1.754990951E0,2.368122339E-2,1.517987251E-2,1.153755188E-2,3.040302574E-2
1.760012201E0,6.934821606E-3,6.574392319E-4,-9.962081909E-3,1.215594723E-2
1.765039024E0,-2.624899149E-2,5.363583565E-3,9.112358093E-3,2.829863341E-2
1.770060274E0,-2.360600233E-2,1.716625690E-2,6.653785706E-3,2.993654266E-2
1.775081524E0,-2.105712891E-2,1.935923100E-2,-5.282402039E-3,2.908756218E-2
1.780102722E0,-1.372694969E-2,2.174019814E-2,-1.471996307E-2,2.962672232E-2
1.785123972E0,6.756782532E-4,2.178061008E-2,9.185791016E-3,2.364805010E-2
1.790145222E0,-1.715123653E-3,2.409589291E-2,6.751060486E-3,2.508247440E-2
1.795181212E0,-1.121276617E-2,1.229429245E-2,-1.464843750E-2,2.216872737E-2
1.800202462E0,1.019239426E-2,2.666652203E-2,4.510879517E-3,2.890218559E-2
1.805223712E0,3.842192888E-2,1.953017712E-2,2.589321136E-2,5.028052140E-2
1.810244962E0,2.134639025E-2,2.898478508E-2,2.807617188E-2,4.565147938E-2
1.815266160E0,2.161324024E-3,2.174091339E-2,1.123046875E-2,2.456546488E-2
1.820287410E0,2.023577690E-3,2.982616425E-4,2.778816223E-2,2.786334127E-2
1.825296056E0,2.812105417E-2,-1.399374008E-2,-9.546279907E-4,3.142498630E-2
1.830317306E0,-7.666587830E-3,-2.806675434E-2,-1.044464111E-2,3.091293898E-2
1.835338556E0,-1.470112801E-2,-8.764743805E-3,3.902435303E-3,1.755485403E-2
1.840359754E0,1.861763000E-2,-1.104915142E-2,-8.754730225E-4,2.166717211E-2
1.845381004E0,-1.950418949E-2,5.792975426E-3,3.896713257E-3,2.071608907E-2
1.850402254E0,-2.896362543E-2,2.941203117E-2,-3.266334534E-3,4.140806826E-2
1.855454389E0,2.156853676E-3,5.173206329E-3,1.573276520E-2,1.670131678E-2
1.860475587E0,-7.424533367E-3,-9.362936020E-3,8.447647095E-3,1.463389928E-2
1.865496837E0,-2.164614201E-2,1.200079918E-2,-1.776409149E-2,3.046535067E-2
1.870518087E0,9.334385395E-3,3.323817253E-2,-3.362655640E-3,3.468737979E-2
1.875539285E0,1.637351513E-2,2.045750618E-3,-3.338813782E-3,1.683522411E-2
1.880560535E0,1.159995794E-2,1.630914211E-2,-3.314018250E-3,2.028619870E-2
1.885578399E0,1.625150442E-2,1.867318153E-2,1.810932159E-2,3.067159326E-2
1.890599649E0,-5.390346050E-3,3.045892715E-2,2.985286713E-2,4.298832108E-2
1.895620899E0,-1.243019104E-2,4.922747612E-2,-6.029129028E-3,5.112929152E-2
1.900642149E0,6.705939770E-3,3.849029541E-3,-8.334159851E-3,1.136850373E-2
1.905663347E0,4.251122475E-3,8.786559105E-3,-1.061058044E-2,1.441735345E-2
1.910684597E0,9.015560150E-3,-7.791042328E-3,-1.763629913E-2,2.128425974E-2
1.915724129E0,1.848936081E-3,-1.230657101E-2,6.287574768E-3,1.394287815E-2
1.920745379E0,-1.487028599E-2,2.111709118E-2,6.248474121E-3,2.657254926E-2
1.925766576E0,-1.232892275E-2,-7.547140121E-3,2.520084381E-2,2.905243861E-2
1.930787826E0,-2.402406931E-2,-1.697432995E-2,1.232147217E-3,2.944150081E-2
1.935809076E0,-2.374404669E-2,-1.909315586E-2,-3.518104553E-3,3.067092130E-2
1.940830274E0,-1.395058632E-2,-1.189255714E-2,5.995750427E-3,1.928732219E-2
1.945831472E0,2.925276756E-3,4.847288132E-3,8.316040039E-3,1.006031651E-2
1.950852670E0,-2.323287725E-2,7.203459740E-3,1.122474670E-3,2.434987407E-2
1.955873920E0,-1.587069035E-2,-1.902091503E-2,-3.215122223E-2,4.058786902E-2
1.960895118E0,-1.429557800E-3,-1.656591892E-2,-2.477073669E-2,2.983391864E-2
1.965916368E0,-6.223201752E-3,1.442360878E-2,-8.106231689E-4,1.572977559E-2
1.970937618E0,-1.816874743E-2,7.140398026E-3,1.573562622E-3,1.958480958E-2
1.975958816E0,8.155405521E-3,-1.308917999E-4,1.104927063E-2,1.373368681E-2
1.980979545E0,-1.794999838E-2,3.293955326E-2,-8.077621460E-3,3.837270618E-2
1.986000795E0,-8.314847946E-3,3.915786743E-3,-3.417301178E-2,3.538735390E-2
1.991022045E0,1.311773062E-2,-7.927656174E-3,-2.996444702E-3,1.561733876E-2
1.996043295E0,1.158893108E-3,1.600980759E-3,1.840114594E-2,1.850698096E-2
2.001064493E0,-1.305526495E-2,3.724181652E-2,2.062320709E-2,4.452762638E-2
2.006085743E0,3.672599792E-3,3.225016594E-2,3.233909607E-2,4.581897344E-2
2.011130379E0,1.539933681E-2,1.056492329E-2,1.306724548E-2,2.279276383E-2
2.016151629E0,-3.653466702E-3,1.089930534E-3,1.296901703E-2,1.351780937E-2
2.021172879E0,1.773339510E-2,-5.827307701E-3,1.012802124E-3,1.869375791E-2
2.026194076E0,1.038402319E-2,3.787159920E-3,-6.108283997E-3,1.262860449E-2
2.031215326E0,7.867455482E-3,1.338207722E-2,-1.287460327E-3,1.557672624E-2
2.036236576E0,1.248478889E-2,1.586759090E-2,-3.618240356E-3,2.051199791E-2
2.041263920E0,-1.134639978E-2,1.099646091E-2,-3.587722778E-3,1.620292244E-2
2.046285170E0,-1.597470045E-2,1.414656639E-3,-1.306056976E-2,2.068262049E-2
2.051306420E0,3.029227257E-3,1.566529274E-2,-2.481937408E-2,2.950557480E-2
2.056327618E0,-8.793950081E-3,-8.053660393E-3,1.816368103E-2,2.172819165E-2
2.061348868E0,-8.678734303E-3,-2.459728718E-2,-3.366470337E-3,2.629981156E-2
2.066370118E0,-1.094692945E-2,-1.007223129E-2,1.418113708E-3,1.494309721E-2
2.071397149E0,2.005451918E-2,-7.600545883E-3,6.157875061E-3,2.231303346E-2
2.076418399E0,-1.804143190E-2,1.142752171E-2,-3.404617310E-3,2.162574707E-2
2.081439649E0,-1.553207636E-2,6.544828415E-3,8.497238159E-3,1.887546639E-2
2.086460847E0,8.336186409E-3,-3.048300743E-3,3.671646118E-3,9.605473777E-3
2.091482097E0,-1.200377941E-3,1.599657536E-2,1.551818848E-2,2.231917346E-2
2.096503295E0,-1.038491726E-3,2.285611629E-2,-2.502155304E-2,3.390514170E-2
2.101519649E0,-1.043182611E-2,1.545703411E-2,-1.057720184E-2,2.143875226E-2
2.106541004E0,-2.228385210E-2,2.722394466E-2,8.521080017E-3,3.619837057E-2
2.111562410E0,-3.110349178E-3,1.518619061E-2,1.083564758E-2,1.891311491E-2
2.116583816E0,1.115912199E-2,4.120862484E-2,8.372306824E-3,4.350600288E-2
2.121605222E0,-5.637645721E-3,2.424848080E-2,-5.945205688E-3,2.559526013E-2
2.126626629E0,1.344180107E-2,1.212930679E-2,-1.302909851E-2,2.230604195E-2
2.131661629E0,1.376867294E-3,1.214385033E-2,-2.715396881E-2,2.977762392E-2
2.136682983E0,-5.791425705E-3,-6.952643394E-3,8.708000183E-3,1.255822954E-2
2.141704389E0,1.308441162E-3,-2.079844475E-3,1.815032959E-2,1.831590117E-2
2.146725795E0,-1.292061806E-2,-1.944184303E-3,1.088619232E-2,1.700680472E-2
2.151747201E0,1.334613562E-2,-9.042501450E-3,2.029705048E-2,2.592019341E-2
2.156768608E0,8.570551872E-3,-6.679773331E-3,2.723789215E-2,2.932535592E-2
2.161792983E0,-2.235466242E-2,2.416670322E-2,1.274394989E-2,3.530111521E-2
2.166814337E0,1.563608646E-3,2.442836761E-3,-1.634597778E-3,3.329299226E-3
2.171835743E0,2.303075790E-2,2.391934395E-3,7.448196411E-4,2.316661210E-2
2.176857149E0,-1.270079613E-2,-9.487509727E-3,5.487442017E-3,1.677602703E-2
2.181878556E0,-2.217215300E-2,2.148544788E-2,-1.355743408E-2,3.371991783E-2
2.186899962E0,-5.656480789E-4,1.435279846E-2,-2.292537689E-2,2.705357069E-2
2.191918504E0,-2.784669399E-3,-4.750132561E-3,1.014709473E-3,5.598908672E-3
2.196939910E0,-1.460409164E-2,9.609580040E-3,2.001762390E-2,2.657684684E-2
2.201961316E0,-4.074573517E-4,-2.356112003E-2,8.783340454E-4,2.358100654E-2
2.206982722E0,1.135379076E-2,-2.087092400E-2,3.269195557E-3,2.398315393E-2
2.212004129E0,1.798868179E-3,-4.050135612E-3,3.241539001E-3,5.490637513E-3
2.217025483E0,1.133477688E-2,-4.098534584E-3,-6.300926208E-3,1.360061850E-2
2.222050535E0,2.553546429E-2,-2.780151367E-2,1.038074493E-2,3.915027413E-2
2.227071941E0,-7.800459862E-4,-3.008806705E-2,7.705688477E-4,3.010803925E-2
2.232093347E0,1.695454121E-3,-1.091802120E-2,7.467269897E-4,1.107408474E-2
2.237114754E0,-7.720530033E-3,-3.731012344E-3,-1.114654541E-2,1.406316151E-2
2.242136160E0,1.845818758E-2,-2.516782284E-2,2.456951141E-2,3.972134044E-2
2.247157514E0,8.630812168E-3,3.563523293E-3,1.249980927E-2,1.560239881E-2
2.252180951E0,-1.056194305E-3,1.532649994E-2,5.264282227E-3,1.623976029E-2
2.257202358E0,-9.986758232E-4,2.007412910E-2,5.233764648E-3,2.076921532E-2
2.262223764E0,1.323759556E-3,1.754951477E-2,2.820014954E-3,1.782386861E-2
2.267245170E0,1.258194447E-3,4.830622673E-2,-9.075164795E-3,4.916739987E-2
2.272266576E0,8.371472359E-3,-1.858234406E-3,-2.085971832E-2,2.255354591E-2
2.277287931E0,8.336782455E-3,7.932662964E-3,-4.023551941E-3,1.219090044E-2
2.282317045E0,1.168847084E-3,-3.688931465E-3,-1.345157623E-2,1.399711835E-2
2.287338399E0,-1.239776611E-3,1.313757896E-2,1.519012451E-2,2.012145397E-2
2.292359806E0,8.256137371E-3,-2.258992195E-2,5.564689636E-3,2.468672009E-2
2.297381212E0,1.782774925E-2,-2.228319645E-2,-6.351470947E-3,2.923543519E-2
2.302402618E0,-2.973800898E-2,-2.435171604E-2,3.213882446E-3,3.857051066E-2
2.307424024E0,-2.696961164E-2,-3.600835800E-2,1.980972290E-2,4.915675864E-2
2.312436785E0,-2.439272404E-2,-9.565353394E-3,5.393981934E-3,2.675062640E-2
2.317458139E0,1.911222935E-3,-4.880309105E-3,-1.795768738E-3,5.540304633E-3
2.322479545E0,-1.238131523E-2,2.092599869E-3,-6.555557251E-3,1.416514285E-2
2.327500951E0,-2.909481525E-3,-3.428459167E-4,-1.362609863E-2,1.393747431E-2
2.332522358E0,-1.019012928E-2,2.105188370E-2,-1.350021362E-2,2.700511636E-2
2.337543764E0,6.410598755E-3,4.317522049E-3,-2.287292480E-2,2.414347660E-2
2.342606941E0,2.055549622E-2,9.053945541E-3,1.295661926E-2,2.593022054E-2
2.347628347E0,-1.225471497E-3,3.021562099E-2,1.521778107E-2,3.385360236E-2
2.352649701E0,1.285964251E-2,2.026724815E-2,4.358291626E-2,4.975542526E-2
2.357671108E0,5.667805672E-3,2.946388721E-2,4.386901855E-4,3.000728445E-2
2.362692514E0,1.753330231E-2,3.636014462E-2,-4.315376282E-3,4.059678902E-2
2.367713920E0,7.875382900E-3,7.672071457E-3,7.615089417E-3,1.337430084E-2
2.372723504E0,-1.584553719E-2,1.955831051E-2,-6.697654724E-3,2.604740174E-2
2.377744858E0,-1.326507330E-2,1.232957840E-2,2.863883972E-3,1.833528032E-2
2.382766264E0,-2.248054743E-2,5.646944046E-4,1.236057281E-2,2.566081941E-2
2.387787670E0,-1.281446218E-2,3.171217442E-2,-1.383686066E-2,3.689622149E-2
2.392809076E0,3.962993622E-3,1.974308491E-2,-8.949279785E-3,2.203597805E-2
2.397830483E0,2.539646626E-2,1.257050037E-2,7.764816284E-3,2.938180304E-2
2.402851733E0,-8.192539215E-3,-1.344347000E-2,5.360603333E-3,1.663071413E-2
2.407873087E0,3.619909286E-3,-1.791858673E-2,-1.603507996E-2,2.431672846E-2
2.412894493E0,1.183927059E-3,-2.225315571E-2,-1.586437225E-2,2.735476063E-2
2.417915899E0,1.054960489E-2,4.230141640E-3,9.260177612E-4,1.140376125E-2
2.422937306E0,5.583941936E-3,-5.243539810E-3,5.685806274E-3,9.539576001E-3
2.427958712E0,1.027196646E-2,-1.231122017E-2,2.939701080E-2,3.348527559E-2
2.432964962E0,1.022809744E-2,-1.942002773E-2,4.576778412E-2,5.075865953E-2
2.437986316E0,-1.358437538E-2,9.053945541E-3,5.486106873E-2,5.723850143E-2
2.443007722E0,7.517933846E-4,1.654505730E-3,2.112197876E-2,2.120001343E-2
2.448029129E0,-3.963589668E-3,6.100296974E-3,1.377868652E-2,1.558126659E-2
2.453050535E0,5.620300770E-3,2.238965034E-2,1.746177673E-3,2.315023455E-2
2.458071941E0,-6.424009800E-3,1.958465576E-2,-1.254653931E-2,2.412969730E-2
2.463098660E0,-6.425023079E-3,4.314649105E-2,-1.957035065E-2,4.781107859E-2
2.468120014E0,-1.688599586E-3,3.830897808E-2,-1.461601257E-2,4.103726348E-2
2.473141420E0,5.456030369E-3,1.673734188E-2,-2.635478973E-2,3.169356122E-2
2.478162826E0,1.959556341E-2,1.924645901E-2,-2.134418488E-2,3.478486047E-2
2.483184233E0,2.773165703E-3,7.630467415E-3,-3.536224365E-2,3.628226505E-2
2.488205639E0,3.355699778E-2,1.506686211E-2,5.371093750E-3,3.717433364E-2
2.493231733E0,3.330552578E-2,-3.844380379E-3,7.729530334E-3,3.440614694E-2
2.498253087E0,-1.435142756E-2,-5.969285965E-3,2.431583405E-2,2.885923826E-2
2.503274493E0,-9.342491627E-3,-1.055204868E-2,3.362274170E-2,3.645705200E-2
2.508295899E0,2.160769701E-2,-1.287317276E-2,1.196002960E-2,2.785055574E-2
2.513317306E0,-9.515702724E-3,-2.705264091E-2,9.483337402E-3,3.020476232E-2
2.518338660E0,-1.647633314E-2,-1.989185810E-2,4.622459412E-3,2.623971615E-2
2.523383972E0,-4.322469234E-3,-1.511526108E-2,9.308815002E-3,1.827043772E-2
2.528405326E0,-1.856309175E-2,-1.280808449E-2,2.345943451E-2,3.254198014E-2
2.533426733E0,-3.266453743E-2,5.962729454E-3,1.846694946E-2,3.799413600E-2
2.538448139E0,-3.230565786E-2,1.036965847E-2,2.539539337E-2,4.238055393E-2
2.543469545E0,5.838632584E-3,1.726424694E-2,-8.085250854E-3,1.993778158E-2
2.548490899E0,1.036965847E-2,1.945936680E-2,-2.464199066E-2,3.306696957E-2
2.553507826E0,1.507604122E-2,3.837132454E-2,-1.492786407E-2,4.384617078E-2
2.558529181E0,5.380034447E-3,2.396821976E-2,-1.715278625E-2,2.996061423E-2
2.563550587E0,2.669155598E-2,1.195454597E-2,-2.175045013E-2,3.644766674E-2
2.568571993E0,2.174627781E-2,1.444900036E-2,6.964683533E-3,2.702186201E-2
2.573593399E0,7.374227047E-3,2.401256561E-2,-1.993179321E-4,2.512015644E-2
2.578614806E0,7.354676723E-3,1.221096516E-2,-1.916790009E-2,2.388738859E-2
2.583656681E0,2.615511417E-3,-4.303336143E-3,-2.135848999E-2,2.194412670E-2
2.588678035E0,2.532005310E-4,-1.845383644E-2,-1.167201996E-2,2.183676349E-2
2.593699441E0,-2.099049091E-2,1.745152473E-2,-4.440307617E-3,2.765633302E-2
2.598720847E0,-1.592624187E-2,-8.809685707E-3,1.221942902E-2,2.192191114E-2
2.603742254E0,-2.284038067E-2,-2.767693996E-2,4.994392395E-3,3.623037331E-2
2.608763660E0,9.786486626E-4,-2.030754089E-2,1.446437836E-2,2.495139699E-2
2.613768451E0,-2.527302504E-2,-1.066946983E-2,-2.283096313E-3,2.752772983E-2
2.618790014E0,-8.546590805E-3,-2.011620998E-2,-3.076839447E-2,3.774122702E-2
2.623811524E0,1.278465986E-2,-2.013981342E-2,2.727508545E-3,2.401039182E-2
2.628833035E0,-1.833051443E-2,5.964636803E-3,1.694011688E-2,2.566227214E-2
2.633854597E0,2.208656073E-2,1.052641869E-2,1.441192627E-2,2.839586720E-2
2.638876108E0,2.663016319E-2,5.596399307E-3,3.328609467E-2,4.299359691E-2
2.643915118E0,7.387280464E-3,2.198660374E-2,2.101898193E-3,2.328949619E-2
2.648936629E0,1.681810617E-2,7.207036018E-3,-5.085945129E-3,1.899096894E-2
2.653958139E0,3.576892614E-2,4.528641701E-3,-3.299713135E-4,3.605597806E-2
2.658979649E0,-4.833519459E-3,4.003286362E-2,2.103614807E-2,4.548090374E-2
2.664001212E0,-1.421564817E-2,2.328896523E-2,1.880645752E-3,2.734954081E-2
2.669022722E0,9.738028049E-3,2.548253536E-2,1.849079132E-2,3.295600344E-2
2.674038868E0,9.781360626E-3,4.918944836E-2,-1.015567780E-2,5.117044691E-2
2.679060379E0,-2.347105742E-2,1.811921597E-2,-2.667522430E-2,3.988438435E-2
2.684081889E0,-3.031539917E-2,1.591765881E-2,-2.403926849E-2,4.183636837E-2
2.689103451E0,-1.098549366E-2,-7.651686668E-3,-2.855205536E-2,3.153488933E-2
2.694124962E0,-1.105856895E-2,-7.208585739E-3,-4.013156891E-2,4.224687537E-2
2.699146472E0,-3.997504711E-3,-1.637148857E-2,-2.549743652E-2,3.056345778E-2
2.704177931E0,-1.585847139E-2,-2.783906460E-2,1.988697052E-2,3.770936527E-2
2.709199441E0,2.226573229E-2,-2.268600464E-2,4.112529755E-2,5.197795436E-2
2.714220951E0,7.810413837E-3,-4.876744747E-2,3.126335144E-2,5.845223384E-2
2.719242462E0,-6.486535072E-3,-4.845511913E-2,2.386188507E-2,5.440003002E-2
2.724264024E0,7.807612419E-4,-2.908349037E-2,2.840518951E-2,4.066096152E-2
2.729285535E0,-6.310403347E-3,-3.398692608E-2,3.286361694E-2,4.769643229E-2
2.734302306E0,-1.471757889E-3,-1.984775066E-2,2.065753937E-2,2.868506947E-2
2.739323868E0,9.130835533E-4,8.432388306E-3,1.093196869E-2,1.383643139E-2
2.744345379E0,1.989316940E-2,1.033997536E-2,-5.840301514E-3,2.316813331E-2
2.749366941E0,1.014333963E-2,1.227724552E-2,-1.771163940E-2,2.381848582E-2
2.754388451E0,-1.893937588E-3,5.226147175E-2,-2.710056305E-2,5.890067017E-2
2.759409962E0,-2.565705776E-2,6.128871441E-2,-1.737689972E-2,6.867712698E-2
2.764438816E0,6.710290909E-4,6.559598446E-2,-3.860282898E-2,7.611479398E-2
2.769460326E0,-1.771450043E-3,3.687071800E-2,-4.975318909E-3,3.724703585E-2
2.774481837E0,1.011121273E-2,4.179728031E-2,2.256393433E-3,4.306205494E-2
2.779503399E0,1.006197929E-2,2.519667149E-2,-1.671886444E-2,3.186904626E-2
2.784524910E0,2.906906605E-2,-7.946014404E-3,-4.663467407E-3,3.049422362E-2
2.789546420E0,2.889978886E-2,-1.220870018E-2,-2.198219299E-3,3.144967924E-2
2.794567045E0,1.686102152E-2,-2.355980873E-2,-2.127647400E-3,2.904970770E-2
2.799588556E0,-4.514217377E-3,-3.506827354E-2,-1.872444153E-2,4.000958233E-2
2.804610066E0,-1.858472824E-2,-4.653227329E-2,-2.806282043E-2,5.742966544E-2
2.809631629E0,-2.071875334E-2,-2.712512016E-2,-1.701354980E-3,3.417504195E-2
2.814653139E0,-8.574903011E-3,-3.405916691E-2,7.805824280E-3,3.597897587E-2
2.819674649E0,-2.272164822E-2,-2.430951595E-2,2.911376953E-2,4.421354362E-2
2.824702722E0,-1.548075676E-2,-5.400538445E-3,2.170944214E-2,2.720513781E-2
2.829724233E0,-1.077210903E-2,-3.326058388E-3,4.863739014E-3,1.227831237E-2
2.834745743E0,-3.740847111E-3,5.903363228E-3,4.291534424E-5,6.988953873E-3
2.839767306E0,3.164190054E-2,1.511049271E-2,1.190471649E-2,3.703051626E-2
2.844788816E0,1.938074827E-2,3.379762173E-2,1.416206360E-2,4.145427220E-2
2.849810326E0,1.434147358E-2,5.945253372E-2,4.524230957E-3,6.132495655E-2
2.854825170E0,-1.435947418E-2,5.416655540E-2,4.485130310E-3,5.621678234E-2
2.859846733E0,9.564340115E-3,5.621516705E-2,-5.017662048E-2,7.595600602E-2
2.864868243E0,4.283559322E-2,5.127179623E-2,-3.784942627E-2,7.678713567E-2
2.869889806E0,1.173490286E-2,3.464388847E-2,-3.986072540E-2,5.409976325E-2
2.874911264E0,-1.434874535E-2,1.103079319E-2,-1.097393036E-2,2.116582243E-2
2.879932826E0,4.875481129E-3,1.922249794E-3,3.429412842E-3,6.263084938E-3
2.884968139E0,-2.159953117E-3,-7.169842720E-3,-1.301765442E-3,7.600436525E-3
2.889989649E0,-1.626378298E-2,-4.464387894E-3,-1.789093018E-2,2.458712628E-2
2.895011160E0,-6.480991840E-3,-2.790641785E-2,-1.058673859E-2,3.054260051E-2
2.900032722E0,-1.129788160E-2,-3.225493431E-2,-2.709770203E-2,4.361546023E-2
2.905054233E0,-8.889496326E-3,-2.948927879E-2,-1.259899139E-2,3.327724888E-2
2.910075743E0,-1.125228405E-2,-3.392493725E-2,2.552795410E-2,4.392256486E-2
2.915098399E0,-4.100084305E-3,-4.803502560E-2,3.005218506E-2,5.680940241E-2
2.920119962E0,3.006160259E-3,-4.084825516E-2,2.738475800E-2,4.927009153E-2
2.925141472E0,4.994869232E-4,-7.590413094E-3,8.113861084E-3,1.112198722E-2
2.930162983E0,-6.654679775E-3,-5.449295044E-3,5.632400513E-3,1.028122147E-2
2.935184493E0,1.000612974E-2,1.810574532E-2,-6.322860718E-3,2.163144039E-2
2.940206056E0,3.362357616E-2,2.954399586E-2,-1.554489136E-3,4.478625907E-2
2.945223347E0,6.926059723E-5,1.975917816E-2,-2.292442322E-2,3.026481618E-2
2.950244858E0,-4.750549793E-3,3.861403465E-2,5.778312683E-3,3.933192460E-2
2.955266368E0,4.729807377E-3,4.548847675E-2,3.367424011E-3,4.585751999E-2
2.960287931E0,2.142632008E-2,4.745757580E-2,-2.517604828E-2,5.783720342E-2
2.965309441E0,-2.420961857E-3,3.297889233E-2,1.181602478E-3,3.308873796E-2
2.970330951E0,-2.255737782E-3,4.021000862E-2,-3.537178040E-3,4.042826703E-2
2.975388868E0,-1.871967316E-2,2.120065689E-2,-1.060009003E-2,3.020357469E-2
2.980410379E0,1.008105278E-2,7.198810577E-3,-1.521492004E-2,1.961999722E-2
2.985431889E0,-1.128935814E-2,-1.856124401E-2,-2.453804016E-2,3.277323300E-2
2.990453451E0,-3.020244837E-2,-2.742326260E-2,-2.902030945E-2,5.006397487E-2
2.995474962E0,-1.570725441E-2,-1.261377335E-2,9.274482727E-3,2.217749195E-2
3.000496472E0,1.047956944E-2,-3.129458427E-2,1.873207092E-2,3.794816019E-2
3.005477149E0,-1.576191187E-2,-4.759943485E-2,2.571201324E-2,5.634937168E-2
3.010498712E0,-1.564025879E-2,-3.303468227E-2,3.261470795E-2,4.898598884E-2
3.015520222E0,-1.273214817E-3,-4.735863209E-2,2.754592896E-2,5.480181850E-2
3.020541733E0,1.134216785E-3,-4.964005947E-2,3.519058228E-3,4.977756244E-2
3.025563295E0,-2.735352516E-2,-3.294670582E-2,2.244567871E-2,4.834779474E-2
3.030584806E0,-1.061660051E-2,-2.187848091E-3,1.271152496E-2,1.670574011E-2
3.035622358E0,1.073157787E-2,1.653933525E-2,-4.055023193E-3,2.012857639E-2
3.040643868E0,2.961617708E-2,1.842498779E-2,1.731204987E-2,3.893976362E-2
3.045665379E0,-6.273448467E-3,2.510643005E-2,1.000404358E-2,2.774472695E-2
3.050686941E0,2.233397961E-2,4.841566086E-2,-1.991271973E-3,5.335586215E-2
3.055708399E0,3.230214119E-3,5.985355377E-2,-1.623725891E-2,6.210097229E-2
3.060729962E0,2.217727900E-2,5.234050751E-2,5.435943604E-4,5.684765540E-2
3.065772514E0,7.767558098E-3,5.682301521E-2,1.481246948E-2,5.923343033E-2
3.070794024E0,-6.515324116E-3,2.104127407E-2,-9.024620056E-3,2.380395828E-2
3.075815535E0,6.489753723E-4,1.638817787E-2,-2.079010010E-2,2.648059299E-2
3.080837097E0,1.724892855E-2,1.424944401E-2,8.134841919E-4,2.238825467E-2
3.085858608E0,-1.929402351E-3,5.050539970E-3,-1.576423645E-2,1.666558425E-2
3.090880118E0,-4.370808601E-3,-1.842808723E-2,1.054573059E-2,2.167742606E-2
3.095901524E0,-3.523296118E-2,-4.903817177E-2,2.710342407E-2,6.618685247E-2
3.100923035E0,-1.599639654E-2,-7.474231720E-2,1.500511169E-2,7.789385123E-2
3.105944545E0,-1.841002703E-2,-8.381295204E-2,7.739067078E-3,8.615934763E-2
3.110966056E0,-1.372855902E-2,-7.395827770E-2,2.890586853E-3,7.527719220E-2
3.115987618E0,-1.852977276E-2,-5.256330967E-2,1.467418671E-2,5.763320013E-2
3.121009129E0,3.921985626E-4,-3.626143932E-2,-1.166629791E-2,3.809394057E-2
3.126005639E0,-7.010936737E-3,3.721117973E-3,-2.144813538E-3,8.221932742E-3
3.131027201E0,-4.793107510E-3,4.109764099E-2,-2.832412720E-2,5.014225918E-2
3.136048816E0,3.076004982E-2,6.633353233E-2,-3.052997589E-2,7.923634018E-2
3.141070431E0,2.821481228E-2,7.503998280E-2,-3.743934631E-2,8.848038937E-2
3.146092045E0,3.984761238E-2,9.823977947E-2,-3.474235535E-2,1.115612735E-1
3.151113660E0,3.485798836E-2,1.310579777E-1,-3.440856934E-2,1.399114810E-1
3.156142462E0,3.725695610E-2,1.280795336E-1,-4.120159149E-2,1.396066576E-1
3.161164076E0,1.592487097E-2,9.465312958E-2,-3.776550293E-4,9.598416056E-2
3.166185691E0,3.038996458E-2,7.358336449E-2,2.588176727E-2,8.371336425E-2
3.171207306E0,4.247188568E-3,2.908849716E-2,2.819347382E-2,4.073145276E-2
3.176228920E0,-3.579360247E-2,-3.412806988E-2,2.571487427E-2,5.574192219E-2
3.181250535E0,-5.898869038E-2,-7.079601288E-2,8.026313782E-2,1.222043875E-1
3.186298764E0,-5.360710621E-2,-5.056405067E-2,9.629917145E-2,1.212599500E-1
3.191320379E0,-4.838109016E-2,-1.116365194E-1,8.602809906E-2,1.490109935E-1
3.196341941E0,-5.754828453E-2,-1.011372805E-1,7.582283020E-2,1.388872065E-1
3.201363556E0,-1.906985044E-2,-1.195902824E-1,4.664707184E-2,1.297745898E-1
3.206385170E0,-7.249474525E-3,-1.214672327E-1,5.095481873E-2,1.319213290E-1
3.211406785E0,2.102893591E-2,-9.736156464E-2,2.432918549E-2,1.025348706E-1
3.216429858E0,1.111465693E-2,-7.583248615E-2,-9.205818176E-3,7.719357903E-2
3.221451472E0,3.945338726E-2,-5.003833771E-2,-1.163005829E-2,6.477393969E-2
3.226473035E0,3.187823296E-2,-1.030600071E-2,-6.916999817E-3,3.420935944E-2
3.231494649E0,2.684485912E-2,3.632497787E-2,-3.786945343E-2,5.894273477E-2
3.236516264E0,1.472687721E-2,7.094788551E-2,-8.990859985E-2,1.154731124E-1
3.241537879E0,2.182430029E-2,9.361398220E-2,-1.011085510E-1,1.395091998E-1
3.246558451E0,-6.784260273E-3,8.794009686E-2,-8.603668213E-2,1.232144370E-1
3.251580066E0,2.919435501E-3,1.016334295E-1,-1.019344330E-1,1.439739759E-1
3.256601629E0,-2.078044415E-2,1.034321785E-1,-6.542110443E-2,1.241368733E-1
3.261623243E0,-2.305781841E-2,1.125489473E-1,-3.630256653E-2,1.204857040E-1
3.266644858E0,-2.530938387E-2,1.074427366E-1,-9.787559509E-3,1.108165280E-1
3.271666472E0,-1.327526569E-2,5.265343189E-2,1.415061951E-2,5.611467368E-2
3.276697306E0,-2.040433884E-2,-1.577496529E-3,3.790569305E-2,4.307745471E-2
3.281718920E0,-3.673672676E-3,-7.901787758E-3,5.432701111E-2,5.502143452E-2
3.286740483E0,1.052826643E-2,-3.328692913E-2,3.971576691E-2,5.287916590E-2
3.291762097E0,8.770227432E-4,-5.385518074E-2,4.896259308E-2,7.279069434E-2
3.296783712E0,2.229827642E-2,-6.490170956E-2,4.860305786E-2,8.409341394E-2
3.301805326E0,2.931880951E-2,-6.171524525E-2,2.684879303E-2,7.341131911E-2
3.306807462E0,-1.779437065E-3,-1.697659492E-3,-1.137065887E-2,1.163358617E-2
3.311829076E0,-4.231327772E-2,4.584538937E-2,-8.015441895E-2,1.015723588E-1
3.316850691E0,-8.029553294E-2,8.136951923E-2,-1.459465027E-1,1.853881143E-1
3.321872306E0,-7.045045495E-2,1.145317554E-1,-1.731405258E-1,2.192223330E-1
3.326893920E0,-4.649251699E-2,1.572260857E-1,-2.166919708E-1,2.717296568E-1
3.331915535E0,1.284044981E-2,1.335105896E-1,-1.956768036E-1,2.372327257E-1
3.336944233E0,1.941668987E-2,1.390173435E-1,-1.391344070E-1,1.976390975E-1
3.341965847E0,9.316802025E-3,1.565622091E-1,-1.067924500E-1,1.897449749E-1
3.346987410E0,4.459786415E-2,1.458179951E-1,-6.992912292E-2,1.677555943E-1
3.352009024E0,8.696252108E-2,1.094413996E-1,-5.233669281E-2,1.492616140E-1
3.357030639E0,1.053801775E-1,9.738397598E-2,-1.586055756E-2,1.443612755E-1
3.362052254E0,1.261299253E-1,5.010592937E-2,3.935146332E-2,1.413078196E-1
3.367083868E0,1.112738252E-1,2.486371994E-2,1.083812714E-1,1.573104215E-1
3.372105483E0,6.841576099E-2,-7.344365120E-3,1.340484619E-1,1.506772916E-1
3.377127045E0,3.546166420E-2,-1.108968258E-2,1.262016296E-1,1.315574476E-1
3.382148660E0,3.130280972E-2,-5.998432636E-2,1.089115143E-1,1.282174062E-1
3.387170274E0,-1.548492908E-2,-9.922993183E-2,8.697509766E-2,1.328571790E-1
3.392191889E0,-5.255615711E-2,-1.764754057E-1,6.043815613E-2,1.938001269E-1
3.397206785E0,-7.037374377E-2,-3.057059050E-1,6.258487701E-2,3.198834647E-1
3.402228399E0,-6.915697455E-2,-3.990330696E-1,1.477537155E-1,4.310930737E-1
3.407249962E0,-6.105101109E-2,-4.689704180E-1,2.534503937E-1,5.365608828E-1
3.412271576E0,-5.799114704E-2,-4.875160456E-1,3.343248367E-1,5.939764004E-1
3.417293191E0,-2.170634270E-2,-3.910567760E-1,3.525476456E-1,5.269595903E-1
3.422314806E0,-6.979107857E-3,-2.467974424E-1,3.134212494E-1,3.989869235E-1
3.427350587E0,7.501423359E-3,-4.267048836E-2,2.056436539E-1,2.101579271E-1
3.432372201E0,4.107177258E-2,1.054397821E-1,-3.185462952E-2,1.175549045E-1
3.437393764E0,4.603201151E-2,2.437516451E-1,-2.268714905E-1,3.361613954E-1
3.442415379E0,-1.321917772E-2,3.180202246E-1,-3.440723419E-1,4.687188778E-1
3.447436993E0,-4.595619440E-2,3.861927390E-1,-3.579177856E-1,5.285470128E-1
3.452458608E0,-5.477529764E-2,4.003438950E-1,-2.455778122E-1,4.728467292E-1
3.457484545E0,-5.642485619E-2,4.177946448E-1,-1.482839584E-1,4.469052047E-1
3.462506160E0,-3.907757998E-2,4.026054144E-1,-2.319049835E-2,4.051616667E-1
3.467527722E0,-4.575020075E-2,3.240368366E-1,-2.970218658E-2,3.285957581E-1
3.472549337E0,-4.546082020E-2,2.300037146E-1,-5.983352661E-2,2.419678611E-1
3.477570951E0,-2.606630325E-2,1.656730175E-1,-6.828212738E-2,1.810785736E-1
3.482592566E0,1.458406448E-2,1.024907827E-1,-9.795951843E-2,1.425241128E-1
3.487622826E0,4.302513599E-2,2.579891682E-2,-6.559276581E-2,8.257818939E-2
3.492644441E0,3.326511383E-2,-1.953876019E-2,-3.589534760E-2,5.269541656E-2
3.497666004E0,4.964458942E-2,-9.311759472E-2,3.868103027E-2,1.123908084E-1
3.502687618E0,2.804070711E-2,-1.668534279E-1,6.976318359E-2,1.830116101E-1
3.507709233E0,-1.477724314E-2,-2.383269072E-1,8.148479462E-2,2.523050799E-1
3.512730847E0,-5.030363798E-2,-2.766112089E-1,6.214714050E-2,2.879348606E-1
3.517758816E0,-8.104819059E-2,-3.226834536E-1,4.760265350E-2,3.360943811E-1
3.522780431E0,-7.368943095E-2,-3.334653378E-1,4.496479034E-2,3.444576840E-1
3.527801993E0,-5.472058058E-2,-3.475122452E-1,7.548236847E-2,3.598009039E-1
3.532823608E0,-6.456369162E-2,-4.099810123E-1,1.578712463E-1,4.440453031E-1
3.537845222E0,-3.136628866E-2,-3.588346243E-1,2.085494995E-1,4.162199243E-1
3.542866837E0,3.231161833E-2,-2.663955688E-1,2.182826996E-1,3.459161412E-1
3.547903972E0,7.882755995E-2,-1.968934536E-1,1.660614014E-1,2.693644470E-1
3.552927306E0,6.092876196E-2,-1.070420742E-1,1.023292542E-1,1.601299345E-1
3.557948816E0,3.136044741E-2,-1.055097580E-2,2.728557587E-2,4.288710065E-2
3.562933347E0,5.445820093E-2,5.454039574E-2,-9.092330933E-3,7.760812391E-2
3.567954962E0,7.534623146E-2,1.359988451E-1,-3.564548492E-2,1.595096895E-1
3.572976524E0,8.677875996E-2,1.791886091E-1,-1.659393311E-4,1.990958020E-1
3.577998139E0,8.640038967E-2,2.321428061E-1,1.838684082E-3,2.477068640E-1
3.583019754E0,6.701380014E-2,2.426155806E-1,-3.200531006E-3,2.517209025E-1
3.588041368E0,7.164031267E-2,2.226836681E-1,-2.475357056E-2,2.352298657E-1
3.593062983E0,3.370320797E-2,2.320041656E-1,-5.556392670E-2,2.409339932E-1
3.598110743E0,2.938801050E-2,2.108772993E-1,-5.279254913E-2,2.193625852E-1
3.603132306E0,-1.522040367E-2,2.357364893E-1,-6.183338165E-2,2.441858312E-1
3.608153920E0,-3.575348854E-2,2.633831501E-1,-9.684276581E-2,2.828913519E-1
3.613175535E0,-4.659229517E-2,2.794468403E-1,-1.267385483E-1,3.103611415E-1
3.618197149E0,-2.696514130E-3,2.817969322E-1,-1.657972336E-1,3.269640727E-1
3.623218764E0,-1.613497734E-2,2.802497149E-1,-1.735315323E-1,3.300203522E-1
3.628243868E0,-2.000349760E-2,3.104795218E-1,-2.024593353E-1,3.711973273E-1
3.633265431E0,4.991143942E-2,3.866745234E-1,-2.428808212E-1,4.593467450E-1
3.638287045E0,9.326034784E-2,3.898255825E-1,-2.661762238E-1,4.811561694E-1
3.643308660E0,1.365641356E-1,3.155893087E-1,-2.416400909E-1,4.202812254E-1
3.648330274E0,1.679594517E-1,1.929677725E-1,-2.195768356E-1,3.371363602E-1
3.653351889E0,1.493913531E-1,2.177929878E-2,-1.050148010E-1,1.839027533E-1
3.658375483E0,1.073191762E-1,-1.745783091E-1,6.079101562E-2,2.137534541E-1
3.663397045E0,3.717911243E-2,-3.539676666E-1,2.677965164E-1,4.454103385E-1
3.668418712E0,-5.148327351E-2,-5.738413334E-1,3.635902405E-1,6.812798737E-1
3.673440326E0,-1.466210186E-1,-7.107923031E-1,3.775348663E-1,8.180806785E-1
3.678461889E0,-1.961391270E-1,-7.724391222E-1,3.697395325E-1,8.785442940E-1
3.683483504E0,-2.173632681E-1,-7.664879560E-1,3.404073715E-1,8.663877629E-1
3.688492514E0,-2.247104645E-1,-6.316424608E-1,3.039760590E-1,7.361171344E-1
3.693514129E0,-2.136100829E-1,-4.090487957E-1,2.795610428E-1,5.395410655E-1
3.698535691E0,-2.055527568E-1,-1.870219707E-1,1.697053909E-1,3.256210575E-1
3.703557306E0,-2.075809240E-1,-1.941776276E-2,5.124759674E-2,2.146932829E-1
3.708578920E0,-1.910597682E-1,1.874284744E-1,-8.040904999E-2,2.794617744E-1
3.713600535E0,-7.268297672E-2,3.698277473E-1,-1.775522232E-1,4.166295354E-1
3.718626733E0,3.779315948E-2,5.759601593E-1,-2.380514145E-1,6.243611967E-1
3.723648295E0,1.406440735E-1,7.778472900E-1,-2.644958496E-1,8.335377715E-1
3.728669910E0,2.454263568E-1,7.951840162E-1,-2.761487961E-1,8.768180392E-1
3.733691524E0,2.954491377E-1,6.604009867E-1,-2.161388397E-1,7.550732774E-1
3.738713139E0,2.862924933E-1,4.360039830E-1,-1.136360168E-1,5.338314428E-1
3.743734754E0,2.420720458E-1,2.167906761E-1,5.463409424E-2,3.295177641E-1
3.748761056E0,1.416429281E-1,2.787446976E-2,2.594861984E-1,2.969390381E-1
3.753782670E0,5.653893948E-2,-1.507018805E-1,3.532438278E-1,3.881866952E-1
3.758804233E0,2.975344658E-3,-2.552810907E-1,3.391666412E-1,4.245130133E-1
3.763825847E0,-7.171988487E-2,-2.960311174E-1,2.371568680E-1,3.860330872E-1
3.768847462E0,-1.487646699E-1,-3.208551407E-1,1.948356628E-2,3.542012954E-1
3.773869076E0,-2.448869050E-1,-4.413882494E-1,-1.251974106E-1,5.200649715E-1
3.778879441E0,-3.006107211E-1,-5.999147892E-1,-1.381168365E-1,6.850845353E-1
3.783901056E0,-3.115917146E-1,-5.326383114E-1,-1.320505142E-1,6.310549149E-1
3.788922618E0,-2.588495314E-1,-4.461891651E-1,-3.835201263E-2,5.172607929E-1
3.793944233E0,-8.087837696E-2,-3.095818758E-1,-2.637863159E-3,3.199831371E-1
3.798965847E0,1.006623507E-1,-1.513400078E-1,3.261756897E-2,1.846635118E-1
3.803987410E0,2.741822004E-1,1.704823971E-2,-4.653930664E-2,2.786259654E-1
3.809026733E0,3.876689076E-1,1.369340420E-1,-1.155185699E-1,4.270628219E-1
3.814048347E0,3.918653131E-1,2.664695978E-1,-1.149158478E-1,4.876167780E-1
3.819069910E0,3.398020267E-1,3.748923540E-1,-7.378387451E-2,5.113254879E-1
3.824091524E0,2.580420375E-1,3.865727186E-1,-1.855659485E-2,4.651542831E-1
3.829113139E0,1.416984200E-1,3.613871336E-1,8.625507355E-2,3.976418493E-1
3.834134754E0,4.054850340E-2,2.874103785E-1,1.808214188E-1,3.419726484E-1
3.839152462E0,-4.809570312E-2,9.325337410E-2,2.651615143E-1,2.851666479E-1
3.844174076E0,-9.807121754E-2,-1.780276299E-1,2.679843903E-1,3.363442197E-1
3.849195639E0,-7.662799954E-2,-4.123253822E-1,2.326593399E-1,4.795982064E-1
3.854217254E0,-7.216015458E-2,-4.940658808E-1,2.069339752E-1,5.404903816E-1
3.859238868E0,-3.211718798E-2,-5.055502653E-1,9.803199768E-2,5.159678838E-1
3.864260483E0,5.290520191E-2,-4.758223295E-1,-6.247425079E-2,4.828135061E-1
3.869287774E0,1.349185109E-1,-3.599087000E-1,-1.197128296E-1,4.025772454E-1
3.874309389E0,1.022933722E-1,-2.149112225E-1,-2.264852524E-1,3.285518788E-1
3.879330951E0,3.187894821E-3,-9.788298607E-2,-3.253173828E-1,3.397390781E-1
3.884352566E0,-6.438019872E-2,-1.519560814E-2,-4.043245316E-1,4.096999430E-1
3.889374181E0,-1.625550985E-1,3.629171848E-2,-4.042081833E-1,4.371790301E-1
3.894395795E0,-1.842708886E-1,1.282650232E-1,-3.517303467E-1,4.172791791E-1
3.899415743E0,-1.537066400E-1,1.797773838E-1,-2.401905060E-1,3.371010502E-1
3.904437358E0,-1.188382506E-1,2.007045746E-1,-5.344581604E-2,2.392933583E-1
3.909458920E0,-4.407599568E-2,2.146941423E-1,1.175546646E-1,2.487073930E-1
3.914480535E0,-3.167238832E-2,1.718740463E-1,2.634210587E-1,3.161241562E-1
3.919502149E0,4.279196262E-3,5.592286587E-2,3.914718628E-1,3.954692122E-1
3.924523764E0,1.143121719E-2,-8.761835098E-2,4.281787872E-1,4.372010087E-1
3.929549858E0,-2.655309439E-2,-1.637593508E-1,4.669094086E-1,4.955063951E-1
3.934571420E0,6.859898567E-3,-1.302908659E-1,4.672765732E-1,4.851496303E-1
3.939593035E0,1.384007931E-2,-5.696594715E-2,3.820896149E-1,3.865606559E-1
3.944614649E0,6.347632408E-2,2.762699127E-2,2.049703598E-1,2.163454246E-1
3.949636264E0,4.129111767E-2,8.094799519E-2,1.275157928E-2,9.176130501E-2
3.954657826E0,2.631288767E-2,1.177643538E-1,-1.302680969E-1,1.775685449E-1
3.959693295E0,-3.156125546E-2,1.121284962E-1,-1.912269592E-1,2.239121757E-1
3.964714910E0,-8.198922873E-2,9.742283821E-2,-1.922264099E-1,2.305741436E-1
3.969736472E0,-1.085538864E-1,4.980909824E-2,-1.836671829E-1,2.190856604E-1
3.974758087E0,-1.115733087E-1,-4.706740379E-3,-1.870555878E-1,2.178544228E-1
3.979779701E0,-1.101003885E-1,-3.539419174E-2,-1.880779266E-1,2.207898341E-1
3.984801316E0,-3.980323672E-2,-4.468369484E-2,-1.439857483E-1,1.559257065E-1
3.989817201E0,8.448404074E-2,-3.500545025E-2,-1.382808685E-1,1.657845991E-1
3.994838764E0,1.057137251E-1,-1.840591431E-2,-1.944103241E-1,2.220575229E-1
3.999860379E0,1.078246236E-1,6.010544300E-2,-2.167768478E-1,2.494614509E-1
4.004881993E0,1.218295693E-1,8.613026142E-2,-2.008914948E-1,2.502364053E-1
4.009903608E0,2.239350080E-1,1.526401043E-1,-1.756105423E-1,3.229318068E-1
4.014925222E0,3.207535148E-1,2.047091722E-1,-9.824371338E-2,3.929891724E-1
4.019964076E0,3.244172335E-1,1.426243782E-1,-6.663322449E-2,3.605942890E-1
4.024985691E0,3.784400225E-1,1.194266081E-1,-3.526496887E-2,3.984007823E-1
4.030007254E0,4.061998725E-1,1.537805796E-1,4.100608826E-2,4.362663204E-1
4.035028920E0,3.246005177E-1,1.667257547E-1,1.926994324E-2,3.654234586E-1
4.040050483E0,2.603300810E-1,1.825166941E-1,-4.582405090E-3,3.179702708E-1
4.045072097E0,2.011812329E-1,2.059928179E-1,-3.763580322E-2,2.903848880E-1
4.050063347E0,1.851282716E-1,1.897246838E-1,-8.692169189E-2,2.789683012E-1
4.055085014E0,1.191040874E-1,2.364410162E-1,-1.285085678E-1,2.942865776E-1
4.060106576E0,6.725364923E-2,2.527000904E-1,-1.339693069E-1,2.938165486E-1
4.065128191E0,6.282752752E-2,2.364349365E-1,-1.558628082E-1,2.900723917E-1
4.070149806E0,7.442361116E-2,1.470296383E-1,-1.656064987E-1,2.336281251E-1
4.075171420E0,1.374638081E-1,6.554114819E-2,-1.823425293E-1,2.375725965E-1
4.080226733E0,1.971049905E-1,-5.741238594E-3,-1.418886185E-1,2.429315112E-1
4.085248451E0,2.273350954E-1,-5.060338974E-2,-9.703254700E-2,2.523039116E-1
4.090270222E0,2.592468262E-1,4.178762436E-3,-7.159328461E-2,2.689832287E-1
4.095291941E0,3.309369087E-1,3.450572491E-2,-5.112361908E-2,3.366355701E-1
4.100313660E0,3.210682273E-1,1.692688465E-2,-1.377258301E-1,3.497709683E-1
4.105335431E0,3.135462999E-1,4.093289375E-3,-1.262178421E-1,3.380221603E-1
4.110358660E0,3.132482171E-1,-2.304065228E-2,-8.394145966E-2,3.251176492E-1
4.115380379E0,3.774309158E-1,-7.613694668E-2,7.162094116E-4,3.850343411E-1
4.120402149E0,4.059298635E-1,-1.363887787E-1,1.225833893E-1,4.454297255E-1
4.125423868E0,4.417349100E-1,-1.303076744E-1,1.863021851E-1,4.968081369E-1
4.130445587E0,4.161065817E-1,-1.151479483E-1,2.018880844E-1,4.766157110E-1
4.135467358E0,3.435593247E-1,-8.845317364E-2,1.721553802E-1,3.943278439E-1
4.140496889E0,3.360127211E-1,-7.513761520E-3,1.141223907E-1,3.549435524E-1
4.145518608E0,3.169217706E-1,4.443192482E-2,6.133460999E-2,3.258458823E-1
4.150540379E0,2.815763950E-1,1.057907343E-1,5.653285980E-2,3.060603044E-1
4.155562097E0,2.633621693E-1,1.267991066E-1,8.746910095E-2,3.051040630E-1
4.160583816E0,2.525827885E-1,8.390855789E-2,9.206485748E-2,2.816285658E-1
4.165605535E0,2.371079326E-1,1.081323624E-2,9.429740906E-2,2.553998808E-1
4.170626629E0,2.620617151E-1,-2.355110645E-2,1.321687698E-1,2.944479256E-1
4.175648347E0,2.937539816E-1,-2.218639851E-2,1.507072449E-1,3.309022690E-1
4.180670066E0,3.129329085E-1,-4.724991322E-2,9.068584442E-2,3.292164667E-1
4.185691785E0,3.884678483E-1,-2.264368534E-2,1.688957214E-2,3.894935985E-1
4.190713556E0,3.771139383E-1,-1.730334759E-2,-1.275100708E-1,3.984634820E-1
4.195735274E0,3.483606577E-1,-1.233291626E-2,-2.279272079E-1,4.164829658E-1
4.200731472E0,3.524857163E-1,5.413424969E-2,-2.966070175E-1,4.638452544E-1
4.205753191E0,2.868992686E-1,1.247423887E-1,-3.314018250E-1,4.557400832E-1
4.210774910E0,2.784707546E-1,1.092774868E-1,-3.492374420E-1,4.598416262E-1
4.215796629E0,2.698731422E-1,1.010550261E-1,-3.573989868E-1,4.591052896E-1
4.220818399E0,2.497081161E-1,1.098330021E-1,-3.345785141E-1,4.316945838E-1
4.225840170E0,2.063558102E-1,1.354210377E-1,-2.572994232E-1,3.565453281E-1
4.230887201E0,1.544132233E-1,1.658798456E-1,-1.331443787E-1,2.628440455E-1
4.235908920E0,1.250743270E-1,1.108584404E-1,3.746986389E-2,1.712809732E-1
4.240930691E0,8.028531075E-2,4.093170166E-3,3.063716888E-1,3.167429508E-1
4.245952410E0,3.892225027E-2,-7.827603817E-2,4.755458832E-1,4.835141846E-1
4.250974129E0,1.743876934E-2,-1.080962420E-1,5.529384613E-1,5.636753056E-1
4.255995899E0,-9.288787842E-4,-5.248081684E-2,5.108156204E-1,5.135053038E-1
4.261021056E0,4.542517662E-2,-5.688142776E-2,3.074493408E-1,3.159494274E-1
4.266042774E0,8.438181877E-2,-7.061064243E-2,1.176671982E-1,1.610953869E-1
4.271064493E0,1.016961336E-1,-4.554247856E-2,-3.480434418E-2,1.167371548E-1
4.276086264E0,1.376916766E-1,1.754534245E-2,-7.430553436E-2,1.574425269E-1
4.281107983E0,1.635285616E-1,8.971464634E-2,-3.503894806E-2,1.897841830E-1
4.286129754E0,1.032585502E-1,1.209440231E-1,-1.743888855E-2,1.599809356E-1
4.291151576E0,9.049510956E-2,1.568468809E-1,-7.830715179E-2,1.972874018E-1
4.296173295E0,9.882247448E-2,1.334544420E-1,-1.243209839E-1,2.074407785E-1
4.301195066E0,1.142900586E-1,1.035313606E-1,-1.627693176E-1,2.242204515E-1
4.306216733E0,2.082874775E-1,3.825211525E-2,-6.313133240E-2,2.209806841E-1
4.311238504E0,2.874903083E-1,2.791249752E-2,9.263610840E-2,3.033335350E-1
4.316260222E0,2.976993918E-1,1.923239231E-2,2.136793137E-1,3.669518523E-1
4.321270483E0,2.940537930E-1,2.890968323E-2,2.599229813E-1,3.935268214E-1
4.326292201E0,2.292113900E-1,2.860927582E-2,1.536417007E-1,2.774204826E-1
4.331313972E0,1.891759634E-1,5.663418770E-2,-2.309322357E-2,1.988171857E-1
4.336335691E0,1.452859044E-1,1.130045652E-1,-9.386825562E-2,2.066138311E-1
4.341357410E0,7.848161459E-2,9.823346138E-2,-6.185531616E-2,1.401258609E-1
4.346379181E0,2.450037003E-2,4.592275620E-2,-3.958988190E-2,6.539515591E-2
4.351404129E0,-1.669222116E-2,6.055951118E-3,5.611324310E-2,5.885576304E-2
4.356425847E0,-4.546159506E-2,6.826400757E-3,1.177320480E-1,1.263890482E-1
4.361447618E0,-6.207174063E-2,-1.851975918E-2,6.956481934E-2,9.505338791E-2
4.366469337E0,-7.644212246E-2,-7.902741432E-3,-4.229736328E-2,8.772068370E-2
4.371491056E0,-6.039315462E-2,-2.080535889E-2,-1.792564392E-1,1.902973123E-1
4.376512826E0,-4.013830423E-2,-5.914175510E-2,-2.318019867E-1,2.425716218E-1
4.381536785E0,-2.784299850E-2,-1.137357950E-1,-1.436862946E-1,1.853559141E-1
4.386558504E0,1.701939106E-2,-8.983111382E-2,-1.668930054E-3,9.144437658E-2
4.391580274E0,3.000503778E-2,-5.259478092E-2,1.034727097E-1,1.198879265E-1
4.396601993E0,8.035576344E-2,-2.812337875E-2,8.416652679E-2,1.197162369E-1
4.401623712E0,1.276593208E-1,3.634989262E-2,-1.812744141E-2,1.339657457E-1
4.406645483E0,1.528175473E-1,4.582023621E-2,-1.432647705E-1,2.144236258E-1
4.411682826E0,1.775144339E-1,5.809009075E-2,-1.841115952E-1,2.622649659E-1
4.416704545E0,1.923624277E-1,1.059073210E-1,-3.693389893E-2,2.226741501E-1
4.421726316E0,2.094147205E-1,1.315624714E-1,6.857872009E-2,2.566442088E-1
4.426748035E0,1.717688441E-1,1.328510046E-1,9.712505341E-2,2.378806449E-1
4.431769754E0,9.642273188E-2,1.197431087E-1,3.039360046E-2,1.567147927E-1
4.436791524E0,5.274927616E-2,1.424863338E-1,-5.240631104E-2,1.607210718E-1
4.441807097E0,3.113114834E-2,1.347198486E-1,-8.694267273E-2,1.633328331E-1
4.446828816E0,4.093289375E-2,1.134361029E-1,-4.713058472E-3,1.206874647E-1
4.451850587E0,7.472389936E-2,1.427745819E-2,1.505012512E-1,1.686360981E-1
4.456872306E0,7.765084505E-2,-4.839754105E-2,2.545137405E-1,2.704611245E-1
4.461894024E0,8.066439629E-2,-6.403565407E-3,3.694677353E-1,3.782250096E-1
4.466915795E0,3.142398596E-2,4.221010208E-2,3.599109650E-1,3.637376284E-1
4.471933399E0,-4.398113489E-2,6.003379822E-2,2.080221176E-1,2.209334709E-1
4.476955118E0,-1.074980497E-1,5.483520031E-2,1.246452332E-2,1.213181529E-1
4.481976889E0,-1.095332503E-1,3.646290302E-2,-1.265821457E-1,1.713187551E-1
4.486998608E0,-1.052337885E-1,9.281885624E-2,-1.454620361E-1,2.021105991E-1
4.492020326E0,-4.009002447E-2,1.158033609E-1,-9.990119934E-2,1.581071728E-1
4.497042097E0,2.839660645E-2,1.313982010E-1,-7.839965820E-2,1.556224948E-1
4.502093295E0,5.761730671E-2,1.300781965E-1,-9.979057312E-2,1.737764361E-1
4.507115014E0,7.652086020E-2,9.795463085E-2,-1.518125534E-1,1.962080608E-1
4.512136733E0,7.096499205E-2,9.476912022E-2,-2.294435501E-1,2.581889985E-1
4.517158504E0,1.387140155E-1,6.306755543E-2,-2.184906006E-1,2.663779968E-1
4.522180222E0,2.221872807E-1,6.464290619E-2,-1.126031876E-1,2.573429052E-1
4.527201941E0,2.763649821E-1,5.372118950E-2,6.575584412E-3,2.816146443E-1
4.532223712E0,3.159550428E-1,2.537596226E-2,6.284713745E-2,3.231428341E-1
4.537231733E0,3.317414522E-1,-1.546287537E-2,4.722404480E-2,3.354423975E-1
4.542253451E0,3.357224464E-1,-3.527641296E-2,2.447605133E-2,3.384568857E-1
4.547275170E0,3.803880811E-1,-7.892727852E-3,-5.315780640E-3,3.805070892E-1
4.552296941E0,4.109481573E-1,3.514540195E-2,-1.364994049E-2,4.126740944E-1
4.557318660E0,3.706430197E-1,7.962679863E-2,1.085805893E-1,3.943430226E-1
4.562340431E0,3.027862310E-1,9.008777142E-2,2.676753998E-1,4.140596912E-1
4.567367254E0,1.908630133E-1,3.838300705E-2,3.635768890E-1,4.124198095E-1
4.572388972E0,7.551562786E-2,3.685164452E-2,4.301109314E-1,4.382420188E-1
4.577410691E0,-1.457965374E-2,5.892109871E-2,4.983816147E-1,5.020642350E-1
4.582432462E0,-4.163223505E-2,5.484175682E-2,4.401550293E-1,4.455079248E-1
4.587454181E0,-4.175561666E-2,5.150198936E-2,3.230857849E-1,3.298187545E-1
4.592475951E0,-5.806887150E-2,6.584298611E-2,1.691131592E-1,1.905427859E-1
4.597495274E0,-2.624630928E-3,1.023234129E-1,6.167411804E-2,1.195017420E-1
4.602517045E0,2.651202679E-2,1.132922173E-1,-4.356384277E-3,1.164344972E-1
4.607538868E0,4.586625099E-2,1.155263186E-1,-6.255531311E-2,1.391517533E-1
4.612560639E0,9.105789661E-2,1.563767195E-1,-1.248922348E-1,2.198710741E-1
4.617582462E0,1.047991514E-1,1.737517118E-1,-2.008314133E-1,2.854921646E-1
4.622604233E0,4.449999332E-2,1.605205536E-1,-3.425426483E-1,3.808970510E-1
4.627644441E0,2.239429951E-2,1.360373497E-1,-4.211797714E-1,4.431704695E-1
4.632666212E0,4.526710510E-2,1.144618988E-1,-3.850307465E-1,4.042268086E-1
4.637688035E0,4.139280319E-2,5.734658241E-2,-3.277654648E-1,3.353091030E-1
4.642709806E0,6.359601021E-2,-6.646692753E-2,-2.164402008E-1,2.351779443E-1
4.647731629E0,8.332955837E-2,-1.521188021E-1,-1.062002182E-1,2.033775592E-1
4.652753399E0,9.099078178E-2,-1.953902245E-1,2.431488037E-2,2.169052226E-1
4.657760795E0,4.168796539E-2,-1.538976431E-1,1.345300674E-1,2.086161788E-1
4.662782566E0,-3.800880909E-2,-6.615579128E-2,1.866416931E-1,2.016342726E-1
4.667804389E0,-6.437838078E-2,5.633115768E-2,1.954879761E-1,2.133853885E-1
4.672826160E0,-1.114234924E-1,9.049952030E-2,1.330518723E-1,1.957247009E-1
4.677847983E0,-1.217499375E-1,6.820511818E-2,1.020908356E-1,1.729090054E-1
4.682869754E0,-1.480497718E-1,4.188299179E-3,1.284961700E-1,1.960804490E-1
4.687894493E0,-1.924761534E-1,-1.591300964E-2,2.046098709E-1,2.813636309E-1
4.692916264E0,-1.742843986E-1,-2.518892288E-3,2.444181442E-1,3.002026409E-1
4.697938087E0,-1.467924714E-1,1.291191578E-2,1.627111435E-1,2.195214419E-1
4.702959858E0,-1.315599680E-1,2.085995674E-2,-1.811027527E-2,1.344289591E-1
4.707981681E0,-1.191954017E-1,2.189207077E-2,-1.973276138E-1,2.315707100E-1
4.713003451E0,-1.261307001E-1,5.191373825E-2,-3.012943268E-1,3.307298914E-1
4.718028816E0,-1.070657969E-1,4.884433746E-2,-2.332525253E-1,2.612577171E-1
4.723050587E0,-8.350634575E-2,1.499128342E-2,-7.310104370E-2,1.119902270E-1
4.728072410E0,-6.948864460E-2,-4.064571857E-2,1.140804291E-1,1.396248204E-1
4.733094181E0,-2.940952778E-2,-8.713829517E-2,2.734146118E-1,2.884675940E-1
4.738116004E0,2.463519573E-2,-1.343189478E-1,3.575735092E-1,3.827627034E-1
4.743137774E0,4.285585880E-2,-1.770677567E-1,3.814821243E-1,4.227507851E-1
4.748157983E0,2.797746658E-2,-2.129966021E-1,3.337650299E-1,3.969249127E-1
4.753179754E0,5.618309975E-2,-1.997419596E-1,2.957344055E-1,3.612647640E-1
4.758201576E0,7.474887371E-2,-1.705642939E-1,2.959051132E-1,3.496275282E-1
4.763223347E0,6.942820549E-2,-1.610593796E-1,2.674856186E-1,3.198577115E-1
4.768245170E0,7.847940922E-2,-1.188013554E-1,2.510900497E-1,2.886502950E-1
4.773266941E0,3.996706009E-2,-1.221498251E-1,2.538108826E-1,2.844958871E-1
4.778290274E0,-5.544543266E-3,-6.592261791E-2,1.852951050E-1,1.967506276E-1
4.783312045E0,1.320481300E-3,-1.466536522E-2,1.126766205E-1,1.136346664E-1
4.788333868E0,-1.094591618E-2,-1.548647881E-3,6.448364258E-2,6.542439569E-2
4.793355639E0,-3.531301022E-2,2.373421192E-2,1.764297485E-4,4.254823890E-2
4.798377462E0,8.843064308E-3,3.273451328E-2,-9.192943573E-2,9.798351545E-2
4.803399233E0,1.660132408E-2,5.385100842E-2,-1.166467667E-1,1.295453714E-1
4.808415899E0,5.476438999E-2,3.179216385E-2,-1.744146347E-1,1.855541562E-1
4.813437670E0,5.403101444E-2,-1.412427425E-2,-1.437959671E-1,1.542599293E-1
4.818459493E0,4.313170910E-2,-5.560314655E-2,-1.443710327E-1,1.606083725E-1
4.823481264E0,6.514632702E-2,-8.566856384E-2,-8.803272247E-2,1.390428243E-1
4.828503087E0,1.151919365E-1,-1.164009571E-1,1.758003235E-2,1.647040454E-1
4.833524858E0,8.364737034E-2,-1.929866076E-1,1.221723557E-1,2.432422614E-1
4.838545066E0,4.368305206E-3,-1.727037430E-1,1.877193451E-1,2.551160862E-1
4.843566837E0,-3.180825710E-2,-6.089723110E-2,1.670560837E-1,1.806321485E-1
4.848588660E0,-2.975821495E-2,-3.359091282E-2,9.661197662E-2,1.065259349E-1
4.853610431E0,-1.084375381E-2,-4.942286015E-2,-5.406951904E-2,7.405213698E-2
4.858632254E0,5.864262581E-3,-3.849697113E-2,-1.511716843E-1,1.561066446E-1
4.863654024E0,1.107478142E-2,-1.996493340E-2,-1.690216064E-1,1.705565970E-1
4.868688451E0,-1.428318024E-2,8.171319962E-3,-7.031154633E-2,7.221144822E-2
4.873710222E0,-5.578494072E-2,7.652378082E-2,3.706073761E-2,1.016924133E-1
4.878732045E0,-5.364346504E-2,1.041462421E-1,1.007585526E-1,1.545197302E-1
4.883753816E0,-6.997656822E-2,1.319211721E-1,6.178855896E-2,1.616098443E-1
4.888775639E0,-7.372617722E-2,1.272864342E-1,6.649971008E-3,1.472467577E-1
4.893797410E0,-8.141112328E-2,9.779798985E-2,-2.888298035E-2,1.304854182E-1
4.898818608E0,-6.700062752E-2,7.156801224E-2,4.519844055E-2,1.079535247E-1
4.903840379E0,-6.660592556E-2,5.541610718E-2,1.305646896E-1,1.566985400E-1
4.908862201E0,-4.622936249E-3,6.076622009E-2,2.033586502E-1,2.122937721E-1
4.913883972E0,6.867289543E-2,8.484148979E-2,1.377267838E-1,1.757347772E-1
4.918905795E0,1.316881180E-1,1.013120413E-1,3.719329834E-3,1.661918275E-1
4.923927566E0,2.032188177E-1,1.630920172E-1,-2.098255157E-1,3.345499081E-1
4.928945899E0,2.118394375E-1,1.556501389E-1,-3.264675140E-1,4.191466936E-1
4.933967670E0,1.962026358E-1,1.458362341E-1,-3.423233032E-1,4.206529750E-1
4.938989493E0,1.588366032E-1,1.381641626E-1,-2.036380768E-1,2.928939546E-1
4.944011264E0,9.275424480E-2,1.107318401E-1,-9.470462799E-2,1.727248011E-1
4.949033087E0,4.355359077E-2,1.089022160E-1,1.337051392E-3,1.172961876E-1
4.954054858E0,-2.422618866E-2,8.069622517E-2,2.763652802E-2,8.867111510E-2
4.959074493E0,-8.643066883E-2,6.482672691E-2,1.334571838E-2,1.088617161E-1
4.964096264E0,-1.855775118E-1,2.586865425E-2,7.284927368E-2,2.010353621E-1
4.969118087E0,-2.641439438E-1,2.055168152E-3,1.508779526E-1,3.042045419E-1
4.974139858E0,-2.747712731E-1,-1.976013184E-3,2.330207825E-1,3.602802274E-1
4.979161681E0,-2.227987647E-1,-8.792877197E-4,2.883205414E-1,3.643745289E-1
4.984183451E0,-2.442649007E-1,-4.461407661E-3,2.647047043E-1,3.602135843E-1
4.989208608E0,-2.318398952E-1,-2.210128307E-2,1.486158371E-1,2.762695618E-1
4.994230379E0,-2.169029117E-1,-6.324350834E-2,3.823566437E-2,2.291475081E-1
4.999252201E0,-1.973026991E-1,-6.845664978E-2,-3.560352325E-2,2.118543812E-1
5.004274024E0,-1.613924503E-1,4.490137100E-3,-3.759479523E-2,1.657741023E-1
5.009295847E0,-1.118757725E-1,2.679514885E-2,-1.250734329E-1,1.699339051E-1
5.014317618E0,-5.830478668E-2,1.806449890E-2,-1.523933411E-1,1.641630430E-1
5.019355951E0,2.998614311E-2,-2.667057514E-2,-1.890163422E-1,1.932295680E-1
5.024377722E0,1.124384403E-1,-6.205344200E-2,-1.636266708E-1,2.080065382E-1
5.029399545E0,1.178658009E-1,-7.670331001E-2,-4.594326019E-2,1.479409610E-1
5.034421316E0,1.156792641E-1,-3.770065308E-2,3.734588623E-2,1.272703681E-1
5.039443139E0,1.058402061E-1,2.244472504E-3,2.240085602E-2,1.082080646E-1
5.044464910E0,6.233286858E-2,1.075698137E-1,-5.427360535E-2,1.356549873E-1
5.049486524E0,-2.542853355E-3,1.406886578E-1,-1.967916489E-1,2.419229580E-1
5.054508295E0,-7.177805901E-2,1.600635052E-1,-3.427038193E-1,3.849913287E-1
5.059530118E0,-1.427817345E-1,1.397792101E-1,-3.755846024E-1,4.254276023E-1
5.064551889E0,-1.893190145E-1,1.466554403E-1,-2.655105591E-1,3.575547013E-1
5.069573712E0,-2.373012304E-1,1.922340393E-1,-8.976459503E-2,3.183134970E-1
5.074595483E0,-2.438681722E-1,1.572873592E-1,3.466987610E-2,2.922550240E-1
5.079629285E0,-2.356388569E-1,1.352108717E-1,3.461074829E-2,2.738714198E-1
5.084651056E0,-2.434706092E-1,9.758520126E-2,-9.918212891E-4,2.623009584E-1
5.089672879E0,-2.292739153E-1,9.194958210E-2,8.914947510E-3,2.471856189E-1
5.094694649E0,-1.932924390E-1,1.918255091E-1,9.350776672E-3,2.724819809E-1
5.099716472E0,-1.667424440E-1,2.010294199E-1,1.457023621E-2,2.615877713E-1
5.104738243E0,-7.584953308E-2,1.485878229E-1,-3.490447998E-2,1.704400643E-1
5.109752879E0,-1.623427868E-2,1.040964127E-1,-7.443523407E-2,1.289969728E-1
5.114774754E0,5.753707886E-2,9.119307995E-2,-8.986377716E-2,1.403644959E-1
5.119796576E0,9.546005726E-2,1.091187000E-1,-2.922248840E-2,1.478968122E-1
5.124818451E0,1.097208261E-1,1.076854467E-1,5.695724487E-2,1.639479883E-1
5.129840326E0,5.969572067E-2,1.249941587E-1,1.043634415E-1,1.734325422E-1
5.134862201E0,9.556233883E-2,1.203596592E-1,1.204204559E-1,1.952426551E-1
5.139888608E0,1.476339102E-1,1.630237103E-1,7.929992676E-2,2.337968775E-1
5.144910483E0,9.677922726E-2,1.244546175E-1,1.478767395E-2,1.583472322E-1
5.149932306E0,-8.776187897E-3,8.153879642E-2,-5.148601532E-2,9.683184688E-2
5.154954181E0,-6.399238110E-2,9.840703011E-2,-4.350662231E-2,1.251870385E-1
5.159976056E0,-5.993926525E-2,1.175990105E-1,-6.401252747E-2,1.466964432E-1
5.164997931E0,5.607247353E-3,9.628880024E-2,-5.342769623E-2,1.102610221E-1
5.170015326E0,5.609011650E-2,1.442408562E-1,-7.849502563E-2,1.735309621E-1
5.175037149E0,8.002090454E-2,1.469457150E-1,-1.151742935E-1,2.031292844E-1
5.180059024E0,9.437227249E-2,1.477733850E-1,-1.277055740E-1,2.169142982E-1
5.185080899E0,6.341922283E-2,1.845318079E-1,-1.115598679E-1,2.247656336E-1
5.190102774E0,1.015961170E-1,1.928718090E-1,-1.358518600E-1,2.568599494E-1
5.195124649E0,1.063627005E-1,2.037979364E-1,-1.100196838E-1,2.548547700E-1
5.200147670E0,1.206537485E-1,1.815854311E-1,-1.983909607E-1,2.947703667E-1
5.205169545E0,1.255282164E-1,1.265518665E-1,-2.242355347E-1,2.864511879E-1
5.210191368E0,1.402115822E-1,5.544221401E-2,-1.928710938E-1,2.448109182E-1
5.215213243E0,1.101173162E-1,2.725827694E-2,-8.351325989E-2,1.408662542E-1
5.220235118E0,3.799295425E-2,-8.670759201E-2,1.031751633E-1,1.400242315E-1
5.225256993E0,-2.388477325E-2,-1.149940491E-1,2.881374359E-1,3.111547777E-1
5.230281004E0,-1.063190699E-1,-1.487307549E-1,4.428339005E-1,4.790891832E-1
5.235302879E0,-1.853548288E-1,-2.635692358E-1,4.511737823E-1,5.544212627E-1
5.240324701E0,-2.636588812E-1,-2.422792912E-1,3.667469025E-1,5.125607779E-1
5.245346576E0,-2.912490964E-1,-2.280417681E-1,3.353176117E-1,4.992664467E-1
5.250368451E0,-2.734916210E-1,-1.279722452E-1,2.377262115E-1,3.843023731E-1
5.255390326E0,-2.178808451E-1,-9.228754044E-2,1.814546585E-1,2.981859250E-1
5.260411576E0,-1.270561218E-1,-1.784574986E-2,6.409645081E-2,1.434227454E-1
5.265433399E0,-9.880840778E-2,5.461740494E-2,-4.731750488E-2,1.224136783E-1
5.270455274E0,-2.826559544E-2,1.131770611E-1,-1.528272629E-1,1.922606650E-1
5.275477149E0,1.038575172E-2,2.054646015E-1,-2.287054062E-1,3.076194551E-1
5.280499024E0,6.699228287E-2,2.788060904E-1,-2.799377441E-1,4.007317589E-1
5.285520899E0,1.365212202E-1,3.330367804E-1,-3.210334778E-1,4.823007718E-1
5.290544285E0,1.596705914E-1,3.251974583E-1,-3.830547333E-1,5.272371509E-1
5.295566160E0,1.867343187E-1,3.484575748E-1,-4.254436493E-1,5.807707689E-1
5.300587983E0,2.201772928E-1,3.455305099E-1,-4.246225357E-1,5.900624301E-1
5.305609858E0,2.295008898E-1,2.903401852E-1,-4.095439911E-1,5.519912700E-1
5.310631733E0,2.745586634E-1,2.685428858E-1,-3.661642075E-1,5.306354379E-1
5.315653556E0,2.864339352E-1,2.036741972E-1,-2.900352478E-1,4.556841261E-1
5.320688972E0,2.633914948E-1,9.826421738E-2,-1.577625275E-1,3.223661753E-1
5.325710847E0,2.463358641E-1,-7.293701172E-3,-5.780410767E-2,2.531321214E-1
5.330732722E0,2.189037800E-1,-1.298027039E-1,1.026802063E-1,2.744281902E-1
5.335754545E0,2.123885155E-1,-9.337019920E-2,2.970066071E-1,3.768816794E-1
5.340776420E0,1.603972912E-1,-4.642987251E-2,4.322528839E-1,4.633849153E-1
5.345798295E0,1.442444324E-1,-3.371500969E-2,4.614858627E-1,4.846775832E-1
5.350806368E0,6.379377842E-2,-1.133422852E-1,3.406753540E-1,3.646584931E-1
5.355828243E0,1.697194576E-2,-1.274719238E-1,2.208032608E-1,2.555214635E-1
5.360850066E0,1.986658573E-2,-1.004569530E-1,2.111616135E-1,2.346817156E-1
5.365871993E0,2.409827709E-2,-8.758664131E-2,1.801710129E-1,2.017764619E-1
5.370893816E0,6.272900105E-2,-1.151478291E-1,1.992435455E-1,2.385203147E-1
5.375915691E0,1.636946201E-1,-1.827220917E-1,1.516132355E-1,2.883918595E-1
5.380933295E0,1.336467266E-1,-2.568707466E-1,5.685520172E-2,2.950873463E-1
5.385955170E0,4.205894470E-2,-2.377774715E-1,-4.420375824E-2,2.454812682E-1
5.390976993E0,1.003946662E-1,-1.359262466E-1,-9.449386597E-2,1.936081719E-1
5.395998920E0,1.765009761E-1,-5.159425735E-2,-1.703958511E-1,2.506976427E-1
5.401020743E0,2.343748212E-1,-7.255792618E-2,-2.669363022E-1,3.625619932E-1
5.406042618E0,3.480342031E-1,-9.340357780E-2,-2.200527191E-1,4.222265198E-1
5.411070483E0,4.218083620E-1,-1.027457714E-1,-1.260604858E-1,4.520732616E-1
5.416092358E0,4.436543584E-1,-8.433461189E-2,1.225185394E-2,4.517650102E-1
5.421114181E0,4.283033609E-1,-4.350781441E-2,7.564926147E-2,4.371035457E-1
5.426136108E0,4.090455174E-1,7.402896881E-4,3.393745422E-2,4.104516222E-1
5.431157931E0,3.454475403E-1,3.666782379E-2,-5.970764160E-2,3.524819639E-1
5.436179806E0,2.641106248E-1,4.832720757E-2,-2.023534775E-1,3.362095641E-1
5.441196993E0,1.841860414E-1,3.645253181E-2,-2.604484558E-1,3.210711495E-1
5.446218868E0,7.264560461E-2,1.537346840E-2,-2.204923630E-1,2.326598580E-1
5.451240691E0,-7.724899054E-2,1.865911484E-2,-8.088684082E-2,1.133942244E-1
5.456262566E0,-1.675891876E-1,2.466106415E-2,3.635215759E-2,1.732506371E-1
5.461284441E0,-2.651215792E-1,-4.261589050E-2,6.250858307E-2,2.757043504E-1
5.466306316E0,-3.484453261E-1,-1.042656898E-1,4.345607758E-2,3.662975703E-1
5.471327722E0,-3.508076072E-1,-7.931399345E-2,2.948474884E-2,3.608684486E-1
5.476349597E0,-3.657878637E-1,-1.279704571E-1,6.801128387E-2,3.934497857E-1
5.481371420E0,-3.078002930E-1,-1.383724213E-1,8.962440491E-2,3.491711347E-1
5.486393295E0,-1.962484717E-1,-4.676699638E-2,8.492851257E-2,2.188914499E-1
5.491415170E0,-1.051476598E-1,5.129957199E-2,-3.843784332E-2,1.231468402E-1
5.496437045E0,-7.707601786E-2,1.014056206E-1,-1.677761078E-1,2.106481302E-1
5.501467201E0,-1.066961288E-1,1.395246983E-1,-2.294101715E-1,2.889294587E-1
5.506489076E0,-1.054155827E-1,1.112093925E-1,-1.858959198E-1,2.409092507E-1
5.511510951E0,-9.953975677E-2,7.357048988E-2,-3.584003448E-2,1.288615080E-1
5.516532826E0,-5.539423227E-2,-4.856109619E-3,1.127786636E-1,1.257423148E-1
5.521554701E0,-3.724718094E-2,-3.139328957E-2,2.337541580E-1,2.387758311E-1
5.526576576E0,-7.097470760E-2,-7.289147377E-2,2.536935806E-1,2.733331464E-1
5.531614024E0,-1.368989944E-1,-1.576132774E-1,1.758193970E-1,2.729390779E-1
5.536635899E0,-1.754385233E-1,-1.781949997E-1,1.625099182E-1,2.982307947E-1
5.541657722E0,-2.365906835E-1,-1.682674885E-1,1.396141052E-1,3.221508925E-1
5.546679597E0,-2.795452476E-1,-1.614804268E-1,2.235584259E-1,3.926828790E-1
5.551701472E0,-3.302391768E-1,-2.288861275E-1,2.780609131E-1,4.886354926E-1
5.556723347E0,-3.434261084E-1,-2.985827923E-1,3.556299210E-1,5.775515704E-1
5.561748608E0,-3.810194731E-1,-3.374776840E-1,3.752517700E-1,6.323613816E-1
5.566770431E0,-4.001566172E-1,-3.194179535E-1,3.778676987E-1,6.363467176E-1
5.571792306E0,-3.631484509E-1,-2.663395405E-1,3.018569946E-1,5.421542155E-1
5.576814181E0,-3.467734754E-1,-1.856076717E-1,1.312885284E-1,4.146549514E-1
5.581836056E0,-3.011612892E-1,-1.198701859E-1,-5.693817139E-2,3.291032345E-1
5.586857931E0,-2.626314163E-1,-1.042416096E-1,-2.079105377E-1,3.508110114E-1
5.591870951E0,-2.001833916E-1,-9.316968918E-2,-2.744340897E-1,3.522329496E-1
5.596892774E0,-1.524416804E-1,-1.057536602E-1,-2.453298569E-1,3.075858275E-1
5.601914649E0,-1.314054728E-1,-1.328036785E-1,-1.642494202E-1,2.487611049E-1
5.606936524E0,-1.251266003E-1,-1.792047024E-1,-9.580898285E-2,2.386427301E-1
5.611958399E0,-1.525480151E-1,-1.689350605E-1,-1.142978668E-2,2.279047863E-1
5.616980274E0,-1.756455302E-1,-1.164186001E-1,-1.093006134E-2,2.110073671E-1
5.622006160E0,-1.897997260E-1,-1.499340534E-1,-8.639907837E-2,2.568442273E-1
5.627028087E0,-2.382084131E-1,-2.187812328E-1,-1.373863220E-1,3.514021591E-1
5.632050014E0,-3.183633387E-1,-2.231361866E-1,-9.287738800E-2,3.997138757E-1
5.637071941E0,-3.707307577E-1,-1.970379353E-1,-8.348464966E-3,4.199225399E-1
5.642093816E0,-3.858892024E-1,-1.597115993E-1,6.597328186E-2,4.228128964E-1
5.647115691E0,-3.711678386E-1,-9.903216362E-2,5.422019958E-2,3.879597452E-1
5.652133920E0,-3.385821879E-1,-4.823899269E-2,-4.760169983E-2,3.452981613E-1
5.657155795E0,-3.021656871E-1,-4.935240746E-2,-1.388540268E-1,3.361847756E-1
5.662177722E0,-2.713733912E-1,-2.339506149E-2,-1.649627686E-1,3.184392585E-1
5.667199649E0,-2.250442803E-1,4.324960709E-2,-1.289186478E-1,2.629362553E-1
5.672221524E0,-1.893298626E-1,8.335721493E-2,-8.358860016E-2,2.231171805E-1
5.677243451E0,-1.521732211E-1,1.018457413E-1,-9.320735931E-2,2.054674088E-1
5.682269597E0,-1.588804722E-1,7.486438751E-2,-1.953725815E-1,2.627130118E-1
5.687291472E0,-1.067895889E-1,7.431769371E-2,-3.180007935E-1,3.435864382E-1
5.692313347E0,-4.868644476E-2,5.721175671E-2,-4.062862396E-1,4.131731641E-1
5.697335274E0,-1.769530773E-2,6.871140003E-2,-3.655261993E-1,3.723490067E-1
5.702357201E0,-2.522039413E-2,1.082860231E-1,-2.301330566E-1,2.555839487E-1
5.707379129E0,-6.702303886E-3,1.471760273E-1,-1.434373856E-1,2.056209801E-1
5.712399858E0,-1.024406552E-1,1.119569540E-1,-8.598804474E-2,1.744201572E-1
5.717421733E0,-2.283391953E-1,3.899598122E-2,-1.264085770E-1,2.638912711E-1
5.722443608E0,-2.794576287E-1,2.600896358E-2,-8.572959900E-2,2.934665170E-1
5.727465587E0,-2.706107497E-1,6.309950352E-2,4.726696014E-2,2.818614744E-1
5.732487462E0,-3.019881845E-1,6.661546230E-2,1.363830566E-1,3.379864221E-1
5.737509337E0,-3.141300082E-1,5.610966682E-2,1.012897491E-1,3.347918309E-1
5.742533139E0,-3.214218020E-1,5.559813976E-2,3.569316864E-2,3.281419362E-1
5.747555066E0,-3.212589622E-1,9.139108658E-2,1.590251923E-2,3.343838238E-1
5.752576993E0,-2.879926860E-1,1.846114397E-1,-4.632377625E-2,3.452058272E-1
5.757598868E0,-2.363044620E-1,2.517899275E-1,-9.357357025E-2,3.577624622E-1
5.762620795E0,-1.709665656E-1,2.836338282E-1,-1.259851456E-1,3.543303147E-1
5.767642670E0,-1.231075525E-1,2.993282080E-1,-1.603240967E-1,3.611878480E-1
5.772678920E0,-9.968471527E-2,2.606875896E-1,-1.657581329E-1,3.246087191E-1
5.777700847E0,-7.441055775E-2,2.488223314E-1,-1.686773300E-1,3.096797142E-1
5.782722722E0,-2.598863840E-2,2.537497282E-1,-1.548938751E-1,2.984232673E-1
5.787744649E0,-1.879251003E-2,2.371524572E-1,-1.554613113E-1,2.841877297E-1
5.792766576E0,-3.342199326E-2,2.109025717E-1,-1.845531464E-1,2.822353419E-1
5.797788504E0,-3.389894962E-2,1.442528963E-1,-2.110509872E-1,2.578770174E-1
5.802798399E0,-6.997466087E-2,6.831431389E-2,-1.376199722E-1,1.688269984E-1
5.807820274E0,-1.033819318E-1,-1.002001762E-2,-1.741600037E-2,1.053163883E-1
5.812842201E0,-1.886702180E-1,-9.581863880E-2,1.324663162E-1,2.496497299E-1
5.817864076E0,-2.848812938E-1,-1.609239578E-1,3.116846085E-1,4.518862322E-1
5.822886004E0,-3.585244119E-1,-1.980614662E-1,4.416522980E-1,6.023494423E-1
5.827907931E0,-3.715547919E-1,-1.809985638E-1,5.204563141E-1,6.645962822E-1
5.832918764E0,-4.051613510E-1,-1.642431021E-1,5.367536545E-1,6.922687357E-1
5.837940691E0,-4.114632607E-1,-1.593103409E-1,5.124998093E-1,6.762675906E-1
5.842962566E0,-3.857608438E-1,-2.202614546E-1,4.528636932E-1,6.343595681E-1
5.847984493E0,-3.522190154E-1,-2.018383741E-1,4.436292648E-1,6.013350885E-1
5.853006420E0,-2.613022327E-1,-2.234913111E-1,4.202594757E-1,5.429965468E-1
5.858028295E0,-1.730906963E-1,-1.925210953E-1,3.685798645E-1,4.504174484E-1
5.863052826E0,-4.029661417E-2,-1.383509636E-1,3.006296158E-1,3.333811214E-1
5.868074754E0,3.175795078E-2,-1.619648933E-2,1.880416870E-1,1.913911434E-1
5.873096629E0,6.946486235E-2,1.950836182E-2,-7.082939148E-2,1.011075960E-1
5.878118556E0,8.729273081E-2,6.965792179E-2,-3.392744064E-1,3.571825441E-1
5.883140483E0,9.954923391E-2,1.226080656E-1,-5.292406082E-1,5.523028237E-1
5.888162358E0,1.227278709E-1,1.519867182E-1,-5.843954086E-1,6.161818615E-1
5.893181889E0,1.640209556E-1,1.789618731E-1,-4.703226089E-1,5.292764706E-1
5.898203816E0,1.521800160E-1,1.271330118E-1,-3.215522766E-1,3.777796005E-1
5.903225691E0,7.337582111E-2,6.353271008E-2,-2.215414047E-1,2.418698211E-1
5.908247618E0,2.577704191E-2,1.676976681E-2,-1.675271988E-1,1.703262848E-1
5.913269545E0,-3.330045938E-2,-3.233814240E-2,-1.045255661E-1,1.143690081E-1
5.918291420E0,-1.227871776E-1,-7.627439499E-2,5.473136902E-3,1.446527896E-1
5.923319129E0,-2.062964439E-1,-1.512067318E-1,1.263008118E-1,2.852605714E-1
5.928341056E0,-2.600801587E-1,-1.497497559E-1,2.602825165E-1,3.972576830E-1
5.933362931E0,-3.364435434E-1,-1.271545887E-1,2.671384811E-1,4.480240121E-1
5.938384858E0,-3.307047486E-1,-9.998452663E-2,2.596263885E-1,4.321670950E-1
5.943406785E0,-2.694551945E-1,-9.161531925E-2,1.999158859E-1,3.478014232E-1
5.948428660E0,-2.103627324E-1,-1.375770569E-2,1.360149384E-1,2.508820781E-1
5.953449389E0,-1.938027740E-1,1.660418510E-2,1.439743042E-1,2.419996166E-1
5.958471316E0,-1.268852949E-1,7.570111752E-2,1.519050598E-1,2.119096139E-1
5.963493191E0,-5.763268471E-2,9.430611134E-2,1.835546494E-1,2.142603050E-1
5.968515118E0,-2.926182747E-2,6.071209908E-2,1.318283081E-1,1.480571388E-1
5.973537045E0,8.610367775E-3,6.079924107E-2,5.441093445E-2,8.204410969E-2
5.978558972E0,7.235819101E-2,2.288162708E-2,3.227043152E-2,8.246609858E-2
5.983614129E0,1.499312520E-1,-4.503726959E-4,3.406429291E-2,1.537529161E-1
5.988636056E0,2.313893437E-1,-2.382278442E-3,3.583049774E-2,2.341591942E-1
5.993657931E0,2.289570570E-1,-2.568364143E-3,2.321338654E-2,2.301451537E-1
5.998679858E0,1.834844351E-1,-1.281321049E-2,-3.626823425E-3,1.839670354E-1
6.003701733E0,1.975492239E-1,-8.027863503E-2,-2.315044403E-2,2.144907881E-1
6.008723660E0,2.089933753E-1,-1.809375286E-1,-1.171016693E-2,2.766834802E-1
6.013732097E0,1.631638408E-1,-2.102788687E-1,9.690189362E-2,2.832483337E-1
6.018754024E0,9.621500969E-2,-1.667526960E-1,2.495679855E-1,3.151951287E-1
6.023775951E0,1.320862770E-2,-1.265995502E-1,3.153257370E-1,3.400474002E-1
6.028797826E0,-1.446813345E-2,-1.253039837E-1,3.139295578E-1,3.383226012E-1
6.033819754E0,-5.843073130E-2,-6.457757950E-2,1.771440506E-1,1.973940951E-1
6.038841681E0,-9.223455191E-2,3.322362900E-3,7.008361816E-2,1.158877224E-1
6.043868972E0,-1.159559488E-1,1.920354366E-2,3.293132782E-2,1.220615849E-1
6.048890899E0,-1.345083117E-1,5.243921280E-2,2.948474884E-2,1.473489307E-1
6.053912826E0,-8.858013153E-2,1.171931028E-1,6.660270691E-2,1.612965704E-1
6.058934701E0,-8.551496267E-2,1.441023350E-1,7.025718689E-2,1.816985528E-1
6.063956629E0,-1.131806970E-1,1.810444593E-1,-4.387855530E-3,2.135561278E-1
6.068978504E0,-1.264566183E-1,1.639690399E-1,-1.495008469E-1,2.553969960E-1
6.073991993E0,-8.517587185E-2,9.795236588E-2,-2.267255783E-1,2.612548239E-1
6.079013868E0,-4.211562872E-2,8.301413059E-2,-2.152719498E-1,2.345358915E-1
6.084035743E0,-6.946086884E-3,8.496022224E-2,-1.824731827E-1,2.014024575E-1
6.089057670E0,4.163908958E-2,7.946598530E-2,-1.404476166E-1,1.666559018E-1
6.094079597E0,3.930950165E-2,6.880176067E-2,-1.819429398E-1,1.984493702E-1
6.099101472E0,7.210218906E-2,4.386198521E-2,-2.230615616E-1,2.384933116E-1
6.104126681E0,8.280313015E-2,2.861869335E-2,-2.566719055E-1,2.712118269E-1
6.109148608E0,1.311566234E-1,3.237223625E-2,-2.614946365E-1,2.943288407E-1
6.114170483E0,1.980383992E-1,4.272317886E-2,-1.475811005E-1,2.506484765E-1
6.119192410E0,2.335603833E-1,2.372753620E-2,-1.812934875E-2,2.354615084E-1
6.124214337E0,2.644963264E-1,8.923292160E-3,7.444000244E-2,2.749167980E-1
6.129236212E0,2.912515402E-1,6.029927731E-2,4.492568970E-2,3.008018951E-1
6.134261108E0,2.568989992E-1,1.037621498E-1,-2.725028992E-2,2.783994573E-1
6.139283035E0,2.405050993E-1,1.612265110E-1,-5.614471436E-2,2.949388404E-1
6.144305014E0,1.682968736E-1,2.638238668E-1,-9.669113159E-2,3.275302204E-1
6.149326941E0,4.073393345E-2,2.380446196E-1,-1.487436295E-1,2.836356140E-1
6.154348920E0,-1.598751545E-2,2.585976124E-1,-1.883955002E-1,3.203454234E-1
6.159370899E0,-8.559870720E-2,2.849465609E-1,-1.824502945E-1,3.490125946E-1
6.164388920E0,-1.370455027E-1,2.812141180E-1,-1.479578018E-1,3.460554307E-1
6.169410847E0,-1.633931994E-1,2.620875835E-1,-1.255006790E-1,3.333731535E-1
6.174432826E0,-2.055184841E-1,2.251784801E-1,-1.102247238E-1,3.241800194E-1
6.179454754E0,-2.016187906E-1,1.871131659E-1,-1.543474197E-1,3.154117936E-1
6.184476681E0,-2.097942829E-1,1.929357052E-1,-1.884317398E-1,3.416787205E-1
6.189498608E0,-1.633559465E-1,2.041037083E-1,-1.603384018E-1,3.066788093E-1
6.194519962E0,-9.106993675E-2,1.300398111E-1,-1.870498657E-1,2.453400459E-1
6.199541889E0,-7.877939939E-2,1.448128223E-1,-1.968441010E-1,2.567577601E-1
6.204563868E0,-8.580434322E-2,1.409342289E-1,-1.636819839E-1,2.324147888E-1
6.209585795E0,-1.168213487E-1,1.230361462E-1,-1.188478470E-1,2.071471253E-1
6.214607774E0,-1.834556460E-1,6.737709045E-2,-2.920341492E-2,1.976068972E-1
6.219629701E0,-1.595055461E-1,2.395296097E-2,3.119945526E-2,1.642838080E-1
6.224664754E0,-7.384878397E-2,1.638829708E-2,1.385822296E-1,1.578836709E-1
6.229686681E0,-2.690911293E-2,-3.422343731E-2,2.592668533E-1,2.628966437E-1
6.234708660E0,1.749938726E-2,-3.870964050E-3,3.100023270E-1,3.105199762E-1
6.239730587E0,2.395981550E-2,3.074932098E-2,3.198604584E-1,3.222271037E-1
6.244752566E0,5.931317806E-2,8.158504963E-2,2.939510345E-1,3.107754561E-1
6.249774545E0,7.809454203E-2,1.085587740E-1,2.587938309E-1,2.913039852E-1
6.254784389E0,1.067169905E-1,8.107686043E-2,2.358503342E-1,2.712698905E-1
6.259806264E0,1.024160981E-1,2.587437630E-2,2.606773376E-1,2.812671592E-1
6.264828295E0,8.951771259E-2,-2.416563034E-2,3.256139755E-1,3.385585025E-1
6.269850222E0,6.293535233E-2,9.099364281E-3,3.471794128E-1,3.529549570E-1
6.274872149E0,2.956497669E-2,2.033126354E-2,2.901067734E-1,2.923172730E-1
6.279894129E0,2.242624760E-2,7.576107979E-3,1.479911804E-1,1.498723573E-1
6.284920587E0,9.805828333E-2,-5.127549171E-3,-3.566360474E-2,1.044682315E-1
6.289942514E0,1.936559677E-1,8.104681969E-3,-1.275024414E-1,2.320025695E-1
6.294964441E0,2.400158644E-1,1.111533642E-1,-1.259164810E-1,2.929464895E-1
6.299986420E0,2.184932828E-1,1.726497412E-1,-2.003412247E-1,3.430508039E-1
6.305008347E0,2.006528974E-1,2.024912834E-1,-3.026037216E-1,4.157322665E-1
6.310030274E0,1.769809127E-1,1.581912041E-1,-3.730859756E-1,4.421988758E-1
6.315076472E0,1.857544184E-1,4.534757137E-2,-4.001474380E-1,4.434851501E-1
6.320098399E0,1.865435243E-1,-4.093325138E-2,-2.678604126E-1,3.289729748E-1
6.325120379E0,1.512185335E-1,-5.373013020E-2,-4.178714752E-2,1.658316540E-1
6.330142306E0,3.039610386E-2,-3.892421722E-2,7.770252228E-2,9.206899470E-2
6.335164285E0,-1.347178817E-1,-6.123423576E-3,9.388923645E-2,1.643216136E-1
6.340186212E0,-2.437906563E-1,-1.143825054E-2,-3.018474579E-2,2.459183535E-1
6.345172931E0,-3.233182430E-1,6.244659424E-2,-1.720886230E-1,3.715491321E-1
6.350194858E0,-3.400416076E-1,1.488050222E-1,-2.460832596E-1,4.453405441E-1
6.355216837E0,-3.176792264E-1,2.333830595E-1,-1.886148453E-1,4.369934819E-1
6.360238764E0,-2.662185431E-1,3.303543329E-1,-1.148080826E-1,4.395306517E-1
6.365260743E0,-2.381427884E-1,3.040114641E-1,-3.196334839E-2,3.875004692E-1
6.370282670E0,-1.951841414E-1,2.573095560E-1,2.178955078E-2,3.236971442E-1
6.375342826E0,-1.587857604E-1,2.923095226E-1,6.089401245E-2,3.381802115E-1
6.380364806E0,-9.333312511E-2,3.461693525E-1,2.126216888E-2,3.591606503E-1
6.385386733E0,-6.560766697E-2,3.287727833E-1,-4.649829865E-2,3.384641794E-1
6.390408712E0,-4.920369387E-2,2.789105177E-1,-1.017255783E-1,3.009321745E-1
6.395430639E0,-3.445214033E-2,2.084635496E-1,-6.618404388E-2,2.214143834E-1
6.400452566E0,-4.042351246E-2,1.173032522E-1,1.893424988E-2,1.255094385E-1
6.405450535E0,-3.606420755E-2,9.521389008E-2,1.198263168E-1,1.572407649E-1
6.410472462E0,-2.604305744E-3,3.925967216E-2,1.840658188E-1,1.882241481E-1
6.415494441E0,4.578322172E-2,-2.771973610E-3,1.549272537E-1,1.615742590E-1
6.420516420E0,1.230945587E-1,-5.671548843E-2,5.703544617E-2,1.470440721E-1
6.425538347E0,1.813630462E-1,-1.033178568E-1,-3.534698486E-2,2.116991814E-1
6.430560326E0,1.994265914E-1,-1.094967127E-1,-5.891799927E-3,2.275856075E-1
6.435580222E0,2.343413234E-1,-2.342557907E-2,7.311820984E-2,2.465986338E-1
6.440602201E0,2.003438473E-1,4.231393337E-2,7.295989990E-2,2.173735796E-1
6.445624129E0,1.996467113E-1,6.710970402E-2,-5.068778992E-2,2.166374247E-1
6.450646108E0,1.676568091E-1,6.833565235E-2,-1.565485001E-1,2.393449391E-1
6.455668035E0,1.829348505E-1,6.989729404E-2,-2.423992157E-1,3.116218397E-1
6.460689962E0,2.520891428E-1,1.051998138E-1,-1.872177124E-1,3.311591892E-1
6.465722462E0,2.965597808E-1,1.663454771E-1,-1.182041168E-1,3.599871312E-1
6.470744441E0,2.996339500E-1,1.483182907E-1,-8.540725708E-2,3.450698754E-1
6.475766368E0,3.089476228E-1,1.612654924E-1,-1.264810562E-1,3.707460725E-1
6.480788295E0,2.887019217E-1,2.076609135E-1,-1.955966949E-1,4.058693406E-1
6.485810274E0,2.890896499E-1,1.990815401E-1,-2.474441528E-1,4.294588386E-1
6.490832201E0,2.814929783E-1,1.809715033E-1,-2.584476471E-1,4.228287693E-1
6.495865691E0,2.658619881E-1,1.131917238E-1,-1.742725372E-1,3.374401877E-1
6.500887618E0,2.281186283E-1,2.630400658E-2,-2.200698853E-2,2.306822856E-1
6.505909597E0,1.636507511E-1,-1.061353683E-1,6.702136993E-2,2.062477849E-1
6.510931524E0,5.136942863E-2,-2.268903255E-1,1.598176956E-1,2.822405603E-1
6.515953451E0,-2.516773343E-2,-3.077421188E-1,1.945409775E-1,3.649449526E-1
6.520975431E0,-1.618736982E-2,-3.655951023E-1,1.930561066E-1,4.137541179E-1
6.525995535E0,-5.282789469E-3,-4.026086330E-1,1.771230698E-1,4.398797576E-1
6.531017462E0,-1.065618396E-1,-4.260251522E-1,2.086400986E-1,4.861929110E-1
6.536039441E0,-2.766254544E-1,-4.405050278E-1,2.848920822E-1,5.930681411E-1
6.541061368E0,-3.722396493E-1,-3.962748051E-1,3.627319336E-1,6.535828435E-1
6.546083347E0,-4.320800602E-1,-3.458738327E-1,3.851814270E-1,6.743045442E-1
6.551105274E0,-4.064803720E-1,-2.627699375E-1,3.266696930E-1,5.839412823E-1
6.556126264E0,-3.555359840E-1,-2.254827023E-1,2.591648102E-1,4.943831346E-1
6.561148191E0,-2.556075454E-1,-1.596248150E-1,1.566905975E-1,3.396575366E-1
6.566170170E0,-1.832387894E-1,-7.489490509E-2,1.169471741E-1,2.299181208E-1
6.571192097E0,-1.024370939E-1,2.601909637E-2,6.098175049E-2,1.220210042E-1
6.576214076E0,-2.795478702E-2,6.947398186E-2,8.516311646E-4,7.489211940E-2
6.581236004E0,4.022768140E-2,1.199322939E-1,-9.194946289E-2,1.563864610E-1
6.586249129E0,5.449643731E-2,1.418554783E-1,-2.004785538E-1,2.515640851E-1
6.591271056E0,2.727249265E-2,1.805555820E-1,-2.818603516E-1,3.358412792E-1
6.596293035E0,1.821294427E-2,2.002720833E-1,-3.149337769E-1,3.736628192E-1
6.601314962E0,-6.284183264E-2,1.298378706E-1,-3.001222610E-1,3.329869970E-1
6.606336941E0,-1.130985618E-1,1.004121304E-1,-2.758884430E-1,3.146240830E-1
6.611358868E0,-1.540691704E-1,2.825808525E-2,-1.948585510E-1,2.500113668E-1
6.616376212E0,-2.355235964E-1,-2.929997444E-2,-1.311655045E-1,2.711719796E-1
6.621398087E0,-2.855369449E-1,-7.490634918E-2,-6.095218658E-2,3.014257406E-1
6.626420118E0,-2.732833326E-1,-1.302037239E-1,-5.698204041E-3,3.027693167E-1
6.631442045E0,-2.371841818E-1,-1.832737923E-1,1.035976410E-1,3.171404898E-1
6.636463972E0,-2.843784690E-1,-2.223067284E-1,2.498464584E-1,4.389927652E-1
6.641485899E0,-2.762445807E-1,-1.862773895E-1,3.352022171E-1,4.726212655E-1
6.646509389E0,-2.084056288E-1,-1.253983974E-1,3.293523788E-1,4.094272263E-1
6.651531368E0,-1.859111190E-1,-4.680490494E-2,2.521076202E-1,3.167205321E-1
6.656553347E0,-1.726718843E-1,-1.175379753E-2,1.422080994E-1,2.240019529E-1
6.661575274E0,-1.757357121E-1,2.075648308E-2,1.661109924E-2,1.777351983E-1
6.666597254E0,-1.877987087E-1,1.506018639E-2,4.171848297E-2,1.929652715E-1
6.671619233E0,-1.875071228E-1,3.071093559E-2,1.069726944E-1,2.180487101E-1
6.676648816E0,-1.939251721E-1,4.361271858E-2,1.478614807E-1,2.477338472E-1
6.681670795E0,-2.021739483E-1,1.575803757E-2,1.479511261E-1,2.510222238E-1
6.686692774E0,-1.766344011E-1,-3.807044029E-2,6.961441040E-2,1.936368669E-1
6.691714701E0,-1.554025710E-1,-8.202552795E-2,1.801872253E-2,1.766432016E-1
6.696736681E0,-1.431604624E-1,-9.000015259E-2,-3.555679321E-2,1.727982378E-1
6.701758660E0,-1.637406647E-1,-9.544968605E-2,-1.742362976E-2,1.903292692E-1
6.706771837E0,-1.907344162E-1,-7.700467110E-2,2.668571472E-2,2.074161621E-1
6.711793764E0,-2.145613432E-1,-6.813502312E-2,-2.697753906E-2,2.267305427E-1
6.716815743E0,-2.474379241E-1,-2.573823929E-2,-4.924869537E-2,2.536009015E-1
6.721837722E0,-2.917233706E-1,-1.417160034E-2,-9.501361847E-2,3.071334350E-1
6.726859701E0,-3.805993795E-1,-8.765423298E-2,-5.951690674E-2,3.950714042E-1
6.731881681E0,-4.212633371E-1,-1.103292704E-1,2.563858032E-2,4.362254966E-1
6.736905795E0,-4.166850448E-1,-7.583725452E-2,8.395957947E-2,4.317718456E-1
6.741927722E0,-4.099088311E-1,-4.176926613E-2,1.251449585E-1,4.306172106E-1
6.746949701E0,-4.010649323E-1,-2.200984955E-2,4.727268219E-2,4.044406259E-1
6.751971681E0,-3.878884912E-1,-3.499412537E-2,-7.492828369E-2,3.966059985E-1
6.756993608E0,-3.229455650E-1,-4.713857174E-2,-1.698102951E-1,3.679013716E-1
6.762015639E0,-2.638244033E-1,-2.050209045E-2,-1.710910797E-1,3.151123753E-1
6.767038712E0,-2.295220047E-1,6.228446960E-3,-1.152544022E-1,2.569099481E-1
6.772060639E0,-1.935866475E-1,2.810025215E-2,-2.895450592E-2,1.977467514E-1
6.777082618E0,-1.558082402E-1,4.518747330E-3,-5.028724670E-2,1.637847184E-1
6.782104597E0,-1.566894352E-1,-6.146740913E-2,-7.614326477E-2,1.847366187E-1
6.787126576E0,-1.556258202E-1,-9.576165676E-2,-8.032703400E-2,1.996049178E-1
6.792148556E0,-1.572315395E-1,-1.086395979E-1,-2.274608612E-2,1.924622136E-1
6.797170379E0,-1.562743187E-1,-1.479948759E-1,1.649103165E-1,2.711449031E-1
6.802192306E0,-1.264522076E-1,-1.709522009E-1,3.318691254E-1,3.941470946E-1
6.807214285E0,-1.345109642E-1,-1.684505939E-1,4.117231369E-1,4.647415879E-1
6.812236264E0,-1.182896793E-1,-1.283711195E-1,4.432973862E-1,4.764285520E-1
6.817258191E0,-1.183547378E-1,-1.028884649E-1,4.365749359E-1,4.638874377E-1
6.822280170E0,-1.608333588E-1,-4.901361465E-2,3.871536255E-1,4.220872344E-1
6.827295014E0,-1.625508070E-1,-2.384293079E-2,3.191900253E-1,3.589895855E-1
6.832316993E0,-1.193903089E-1,-5.064177513E-2,2.115278244E-1,2.481182293E-1
6.837338972E0,-6.255200505E-2,-2.222502232E-2,1.167249680E-1,1.342811346E-1
6.842360899E0,1.260137558E-2,1.570987701E-2,5.365753174E-2,5.731252581E-2
6.847382879E0,8.913511038E-2,5.852365494E-2,-1.114749908E-2,1.072117196E-1
6.852404858E0,8.141636848E-2,5.861353874E-2,-7.768154144E-2,1.268802343E-1
6.857423504E0,1.185221672E-1,8.508467674E-2,-1.435880661E-1,2.047057377E-1
6.862445483E0,7.380104065E-2,1.141985655E-1,-2.016744614E-1,2.432293040E-1
6.867467462E0,6.201577187E-2,1.457800865E-1,-2.401628494E-1,2.877081574E-1
6.872489389E0,2.350425720E-2,1.628209352E-1,-2.094011307E-1,2.662929601E-1
6.877511368E0,-3.193694353E-2,1.037347317E-1,-1.669692993E-1,1.991472064E-1
6.882533347E0,-1.156253815E-1,4.255950451E-2,-1.296644211E-1,1.788669963E-1
6.887571316E0,-1.560344398E-1,-3.995168209E-2,-8.324337006E-2,1.813073136E-1
6.892593295E0,-2.318051457E-1,-1.034801006E-1,2.679729462E-2,2.552642784E-1
6.897615274E0,-3.066379428E-1,-1.028877497E-1,1.761837006E-1,3.683115710E-1
6.902637201E0,-3.875764012E-1,-1.007156372E-1,2.813892365E-1,4.894272252E-1
6.907659181E0,-5.049316287E-1,-1.703956127E-1,3.309144974E-1,6.272918133E-1
6.912681160E0,-5.323946476E-1,-2.161028385E-1,4.202795029E-1,7.118843713E-1
6.917700535E0,-5.251964331E-1,-2.665416002E-1,4.873771667E-1,7.644685871E-1
6.922722514E0,-4.715174437E-1,-2.074894905E-1,5.442886353E-1,7.494202471E-1
6.927744493E0,-4.147371054E-1,-1.798187494E-1,5.460157394E-1,7.088545951E-1
6.932766420E0,-3.550646603E-1,-1.381427050E-1,4.288911819E-1,5.736740938E-1
6.937788399E0,-2.853257358E-1,-8.716881275E-2,2.034311295E-1,3.611002657E-1
6.942810379E0,-2.060121000E-1,-7.488131523E-3,-5.569648743E-2,2.135395892E-1
6.947828660E0,-1.007482409E-1,8.437228203E-2,-2.269840240E-1,2.622796927E-1
6.952850639E0,-3.171741962E-2,1.311917305E-1,-3.919410706E-1,4.145299358E-1
6.957872618E0,-2.059251070E-2,1.380386353E-1,-5.030851364E-1,5.220855972E-1
6.962894545E0,-4.079926014E-2,9.557819366E-2,-5.371408463E-1,5.471015074E-1
6.967916524E0,-1.397055387E-2,9.408771992E-2,-5.304450989E-1,5.389060014E-1
6.972938504E0,2.315878868E-3,1.140617132E-1,-5.593757629E-1,5.708911296E-1
6.977956993E0,-1.301527023E-3,1.292932034E-1,-5.903615952E-1,6.043552262E-1
6.982978972E0,-2.205753326E-2,1.185493469E-1,-6.471328735E-1,6.582715537E-1
6.988000951E0,-5.755579472E-2,6.552946568E-2,-5.821609497E-1,5.886579242E-1
6.993022879E0,-6.953233480E-2,9.133803844E-2,-4.203014374E-1,4.356956290E-1
6.998044858E0,-1.196504831E-1,7.638514042E-2,-2.408037186E-1,2.795306042E-1
7.003066837E0,-1.576059759E-1,7.070803642E-2,-8.661746979E-2,1.932404102E-1
7.008111056E0,-1.952810585E-1,3.374290466E-2,3.531742096E-2,2.012972818E-1
7.013133035E0,-2.254614532E-1,-1.978218555E-2,1.110515594E-1,2.521044438E-1
7.018155014E0,-2.266305983E-1,-7.315182686E-2,1.884584427E-1,3.036926118E-1
7.023176941E0,-2.416995466E-1,-7.889521122E-2,2.342557907E-1,3.457150570E-1
7.028198920E0,-2.159862220E-1,-1.017087698E-1,2.938117981E-1,3.785764053E-1
7.033220899E0,-1.686816812E-1,-1.105171442E-1,3.408842087E-1,3.960676615E-1
7.038234441E0,-1.095049083E-1,-1.481031179E-1,3.185844421E-1,3.679971539E-1
7.043256420E0,-6.005197763E-2,-1.073405743E-1,2.560014725E-1,2.840158320E-1
7.048278399E0,-6.412863731E-3,-2.670347691E-2,1.582841873E-1,1.606489479E-1
7.053300326E0,3.229266405E-2,3.944361210E-2,5.910587311E-2,7.805202703E-2
7.058322306E0,4.185569286E-2,6.022727489E-2,-4.391479492E-2,8.548527873E-2
7.063344285E0,5.331891775E-2,3.365695477E-2,-1.151056290E-1,1.312440605E-1
7.068375170E0,7.135200500E-2,3.856444359E-2,-1.262140274E-1,1.500276829E-1
7.073397149E0,1.127563715E-1,4.824316502E-2,-7.781124115E-2,1.452445921E-1
7.078419129E0,2.198361754E-1,8.837091923E-2,-5.597877502E-2,2.434563342E-1
7.083441056E0,2.614924312E-1,6.155180931E-2,-5.569744110E-2,2.743521856E-1
7.088463035E0,2.860151529E-1,8.485627174E-2,-1.219177246E-1,3.222874278E-1
7.093485014E0,2.815361023E-1,8.438444138E-2,-1.780271530E-1,3.436233084E-1
7.098498660E0,2.007117867E-1,4.123735428E-2,-1.552343369E-1,2.570669953E-1
7.103520639E0,8.463650942E-2,3.876733780E-2,-1.231174469E-1,1.543507400E-1
7.108542618E0,6.930232048E-2,-2.590775490E-2,8.419036865E-3,7.446410927E-2
7.113564545E0,4.697006941E-2,-2.631521225E-2,7.702255249E-2,9.397420608E-2
7.118586524E0,2.007031441E-2,-4.141724110E-2,1.354722977E-1,1.430767235E-1
7.123608504E0,-6.341648102E-2,-7.806408405E-2,1.387329102E-1,1.713548121E-1
7.128644597E0,-1.081675887E-1,-1.218165159E-1,1.490421295E-1,2.208009220E-1
7.133666576E0,-1.166594625E-1,-1.107294559E-1,1.568431854E-1,2.246557976E-1
7.138688556E0,-9.653615952E-2,-4.745995998E-2,1.740856171E-1,2.046398787E-1
7.143710483E0,-1.000932455E-1,2.469539642E-2,1.911544800E-1,2.171832305E-1
7.148732462E0,-7.240349054E-2,4.425323009E-2,1.772279739E-1,1.964952126E-1
7.153754441E0,-5.181556940E-2,7.123446465E-2,1.539850235E-1,1.773995199E-1
7.158763972E0,-3.837287426E-2,4.614174366E-2,1.713886261E-1,1.815918477E-1
7.163785951E0,-5.336254835E-2,7.133686543E-2,2.219285965E-1,2.391418238E-1
7.168807983E0,-2.302783728E-2,1.226420403E-1,2.554512024E-1,2.843003133E-1
7.173829962E0,-2.206921577E-3,1.047043800E-1,3.338270187E-1,3.498690557E-1
7.178851941E0,-1.215827465E-2,1.038212776E-1,3.070592880E-1,3.243641282E-1
7.183873972E0,-2.149105072E-2,6.523215771E-2,2.734041214E-1,2.818987642E-1
7.188902618E0,-2.566659451E-2,6.774449348E-2,2.186994553E-1,2.303856380E-1
7.193924597E0,-1.511794329E-2,6.366384029E-2,1.977777481E-1,2.083210849E-1
7.198946629E0,2.186566591E-2,5.248224735E-2,1.841278076E-1,1.927058462E-1
7.203968608E0,6.598520279E-2,2.487123013E-2,1.088228226E-1,1.296727874E-1
7.208990587E0,8.877748251E-2,7.252454758E-3,7.217121124E-2,1.146417168E-1
7.214012618E0,1.163969636E-1,-4.337108135E-2,2.632236481E-2,1.269731102E-1
7.219027306E0,1.295613647E-1,-3.184771538E-2,-3.815746307E-2,1.387674896E-1
7.224049285E0,1.236256957E-1,3.421068192E-3,-8.308219910E-2,1.489888189E-1
7.229071316E0,8.193391562E-2,1.458120346E-2,-1.110010147E-1,1.387335694E-1
7.234093347E0,3.305262327E-2,5.420601368E-2,-1.956596375E-1,2.057023616E-1
7.239115274E0,-3.964740038E-2,4.608821869E-2,-2.035427094E-1,2.124280461E-1
7.244137306E0,-1.123148799E-1,-9.527921677E-3,-2.113265991E-1,2.395085490E-1
7.249161785E0,-1.350973248E-1,-9.338903427E-2,-1.739025116E-1,2.391963261E-1
7.254183816E0,-2.367432714E-1,-1.675900221E-1,-6.082153320E-2,2.963664133E-1
7.259205795E0,-2.831470072E-1,-2.468199730E-1,5.117416382E-2,3.790924977E-1
7.264227826E0,-2.533055246E-1,-3.335741758E-1,1.454286575E-1,4.433789733E-1
7.269249806E0,-2.188548446E-1,-3.518719673E-1,1.887931824E-1,4.553616037E-1
7.274271785E0,-2.106408477E-1,-3.187198639E-1,2.149810791E-1,4.383705997E-1
7.279305014E0,-2.092834115E-1,-2.984913588E-1,2.289104462E-1,4.304609505E-1
7.284327045E0,-1.716085076E-1,-2.859770060E-1,2.283458710E-1,4.041957009E-1
7.289349024E0,-2.285332084E-1,-3.284635544E-1,3.440876007E-1,5.277423717E-1
7.294371056E0,-1.725832224E-1,-2.212649584E-1,3.518552780E-1,4.500503162E-1
7.299393035E0,-2.164670229E-1,-1.997327805E-2,2.740058899E-1,3.497658238E-1
7.304415014E0,-3.026940823E-1,8.959412575E-3,9.709644318E-2,3.180121032E-1
7.309418399E0,-2.551874816E-1,2.905881405E-2,-9.717559814E-2,2.746054667E-1
7.314440379E0,-1.154319644E-1,1.163058281E-1,-1.756582260E-1,2.402236383E-1
7.319462410E0,-8.365607262E-2,2.036411762E-1,-2.200880051E-1,3.112985659E-1
7.324484389E0,-5.471134186E-2,2.291382551E-1,-2.212572098E-1,3.231910020E-1
7.329506368E0,-2.134442329E-2,2.430442572E-1,-1.938133240E-1,3.115922013E-1
7.334528399E0,3.535211086E-2,2.332143784E-1,-2.330780029E-1,3.316083133E-1
7.339545691E0,5.085760355E-2,2.094618082E-1,-2.861986160E-1,3.582881421E-1
7.344567722E0,-1.004296541E-2,1.407980919E-1,-3.055934906E-1,3.366189913E-1
7.349589701E0,2.947151661E-3,9.886646271E-2,-2.630367279E-1,2.810188310E-1
7.354611681E0,2.286046743E-2,6.181085110E-2,-1.781063080E-1,1.899079757E-1
7.359633660E0,-2.767801285E-3,6.016838551E-2,-1.034564972E-1,1.197127485E-1
7.364655691E0,-7.578814030E-2,-1.073718071E-3,-6.746768951E-2,1.014735641E-1
7.369699962E0,-1.292635202E-1,-5.960524082E-2,-7.693672180E-2,1.618057526E-1
7.374721993E0,-1.775423884E-1,-1.012637615E-1,-1.747703552E-2,2.051367735E-1
7.379743972E0,-1.706345081E-1,-8.337295055E-2,6.995296478E-2,2.023872563E-1
7.384765951E0,-1.518123746E-1,-1.134544611E-1,1.565952301E-1,2.458474688E-1
7.389787931E0,-1.328560710E-1,-8.891344070E-2,2.424507141E-1,2.904112331E-1
7.394809962E0,-8.978831768E-2,-1.289749146E-1,2.657461166E-1,3.087352735E-1
7.399819493E0,-9.428024292E-2,-1.139513254E-1,2.793436050E-1,3.160799241E-1
7.404841472E0,-1.436049342E-1,-5.630350113E-2,2.310428619E-1,2.778007657E-1
7.409863504E0,-1.188591123E-1,1.057803631E-2,1.594276428E-1,1.991395408E-1
7.414885483E0,-1.013254523E-1,8.687436581E-2,2.671813965E-2,1.361170882E-1
7.419907462E0,-1.009005904E-1,1.609191895E-1,-7.622623444E-2,2.046615584E-1
7.424929493E0,-1.126136184E-1,1.829081774E-1,-1.852798462E-1,2.836650310E-1
7.429948451E0,-1.198198795E-1,2.316260338E-1,-2.552614212E-1,3.649189173E-1
7.434970483E0,-1.559609771E-1,2.997527122E-1,-2.817287445E-1,4.399393144E-1
7.439992462E0,-1.897845864E-1,2.992439270E-1,-3.054351807E-1,4.678202290E-1
7.445014441E0,-2.141401768E-1,2.686244249E-1,-2.765312195E-1,4.410040956E-1
7.450036420E0,-2.315168381E-1,1.984963417E-1,-2.429866791E-1,3.899273909E-1
7.455058451E0,-2.086207271E-1,1.147505045E-1,-2.215728760E-1,3.252457923E-1
7.460078920E0,-2.168219090E-1,3.414034843E-2,-1.504383087E-1,2.660995835E-1
7.465100899E0,-1.821187735E-1,-2.941417694E-2,-5.381202698E-2,1.921670515E-1
7.470122931E0,-9.550273418E-2,-1.025615931E-1,2.290821075E-2,1.420015448E-1
7.475144910E0,-9.522795677E-3,-1.925579309E-1,1.035966873E-1,2.188641451E-1
7.480166889E0,9.978693724E-2,-2.114194632E-1,1.430616379E-1,2.740843930E-1
7.485188920E0,1.443544030E-1,-1.644550562E-1,1.844091415E-1,2.861649711E-1
7.490209649E0,1.625830531E-1,-3.997147083E-2,1.303005219E-1,2.121537029E-1
7.495231681E0,9.047478437E-2,1.684713364E-2,5.998992920E-2,1.098558334E-1
7.500253660E0,7.202088833E-3,7.125854492E-2,-6.430625916E-2,9.625458573E-2
7.505275639E0,1.494646072E-2,9.280812740E-2,-1.375436783E-1,1.665983452E-1
7.510297618E0,-2.250826359E-2,1.839417219E-1,-1.506404877E-1,2.388173685E-1
7.515319597E0,-1.704466343E-2,2.155950069E-1,-9.698963165E-2,2.370204975E-1
7.520357879E0,-2.359491587E-2,2.638541460E-1,-5.324077606E-2,2.702042018E-1
7.525379858E0,-1.231313348E-1,2.885507345E-1,-6.911659241E-2,3.212474986E-1
7.530401889E0,-1.581081748E-1,2.376159430E-1,-1.417436600E-1,3.186703570E-1
7.535423920E0,-2.382530570E-1,2.091439962E-1,-2.088804245E-1,3.796534763E-1
7.540445899E0,-2.775591612E-1,1.909708977E-1,-2.302131653E-1,4.080527824E-1
7.545467879E0,-3.524270654E-1,1.377769709E-1,-1.847572327E-1,4.210968596E-1
7.550486576E0,-4.151248038E-1,1.065177917E-1,-1.301317215E-1,4.478938575E-1
7.555508608E0,-4.892836809E-1,5.643808842E-2,-1.068468094E-1,5.039841455E-1
7.560530587E0,-5.438982248E-1,-5.035483837E-2,-6.951427460E-2,5.506297514E-1
7.565552566E0,-5.409176350E-1,-8.268237114E-2,-5.864429474E-2,5.503339128E-1
7.570574597E0,-5.233168602E-1,-1.030542850E-1,-7.168197632E-2,5.381626404E-1
7.575596576E0,-4.886107445E-1,-9.449231625E-2,-2.047824860E-2,4.980849487E-1
7.580641264E0,-4.415571094E-1,-7.142889500E-2,5.404853821E-2,4.505507878E-1
7.585663243E0,-4.012862444E-1,-5.779004097E-2,9.230899811E-2,4.158019840E-1
7.590685274E0,-3.794064820E-1,-6.545448303E-2,1.420860291E-1,4.103925043E-1
7.595707306E0,-3.400970101E-1,-5.159604549E-2,1.771326065E-1,3.869161259E-1
7.600729285E0,-3.002516031E-1,-8.541917801E-2,2.189388275E-1,3.812894850E-1
7.605751264E0,-2.529274225E-1,-6.707370281E-2,2.602825165E-1,3.690774323E-1
7.610725691E0,-2.291120291E-1,-6.091570854E-2,2.418203354E-1,3.386445334E-1
7.615747722E0,-2.382397354E-1,-5.754792690E-2,1.854047775E-1,3.073188359E-1
7.620769649E0,-2.041738033E-1,3.586161137E-2,1.056461334E-1,2.326673648E-1
7.625791681E0,-1.866028309E-1,1.071733236E-1,9.903907776E-3,2.154177922E-1
7.630813660E0,-1.997797489E-1,1.303973198E-1,-3.516769409E-2,2.411476224E-1
7.635835639E0,-2.485588789E-1,1.487458944E-1,-5.846405029E-2,2.955078723E-1
7.640891420E0,-3.256103098E-1,1.482766867E-1,-1.266279221E-1,3.795295513E-1
7.645913399E0,-3.688927889E-1,1.289923191E-1,-1.846771240E-1,4.322343672E-1
7.650935431E0,-4.239924848E-1,1.410629749E-1,-2.231588364E-1,4.994679733E-1
7.655957410E0,-4.573998451E-1,1.418263912E-1,-2.516899109E-1,5.409964462E-1
7.660979389E0,-4.455653727E-1,1.813247204E-1,-2.061986923E-1,5.233785019E-1
7.666001420E0,-4.363677502E-1,1.235249043E-1,-9.685802460E-2,4.637420536E-1
7.671017358E0,-5.083343387E-1,-1.873815060E-2,4.020404816E-2,5.102658950E-1
7.676039389E0,-5.517541170E-1,-1.550868750E-1,1.476583481E-1,5.918509375E-1
7.681061368E0,-4.979684353E-1,-2.384730577E-1,2.494335175E-1,6.058539770E-1
7.686083399E0,-4.166104496E-1,-2.482798100E-1,3.455152512E-1,5.954728537E-1
7.691105431E0,-3.099957108E-1,-2.090362310E-1,3.432550430E-1,5.075603523E-1
7.696127410E0,-2.139858603E-1,-1.182701588E-1,2.126789093E-1,3.240526151E-1
7.701157774E0,-1.522228420E-1,2.657520771E-2,-3.078556061E-2,1.575620069E-1
7.706179806E0,-1.481274962E-1,6.153392792E-2,-2.174673080E-1,2.702225185E-1
7.711201837E0,-1.773153841E-1,9.914326668E-2,-2.955932617E-1,3.586718684E-1
7.716223868E0,-2.183160782E-1,7.271802425E-2,-2.304458618E-1,3.256610451E-1
7.721245847E0,-2.475077510E-1,1.092982292E-2,-1.563014984E-1,2.929329381E-1
7.726267879E0,-2.578949332E-1,2.516722679E-2,-8.520889282E-2,2.727704920E-1
7.731277983E0,-2.191582322E-1,6.226944923E-2,-9.318256378E-2,2.461519962E-1
7.736299962E0,-1.604284942E-1,3.461158276E-2,-1.984710693E-1,2.575384025E-1
7.741321993E0,-1.339767277E-1,-9.407758713E-3,-2.885599136E-1,3.182846105E-1
7.746343972E0,-1.322951317E-1,-3.866541386E-2,-3.160552979E-1,3.448013448E-1
7.751366004E0,-8.645832539E-2,-7.239818573E-2,-2.315959930E-1,2.575912330E-1
7.756387983E0,-1.081403494E-1,-1.394196749E-1,-7.421016693E-2,1.914140271E-1
7.761412826E0,-8.509069681E-2,-2.114071846E-1,7.939147949E-2,2.413222563E-1
7.766434806E0,-1.556521654E-2,-3.196164370E-1,1.935520172E-1,3.739777080E-1
7.771456837E0,9.968996048E-3,-5.708518028E-1,3.944501877E-1,6.939467647E-1
7.776478816E0,-8.267343044E-3,-3.842877150E-1,3.796834946E-1,5.402822900E-1
7.781500847E0,1.335519552E-2,-3.740282059E-1,1.890602112E-1,4.193080294E-1
7.786522826E0,-6.243586540E-3,-4.193602800E-1,-2.620697021E-2,4.202247400E-1
7.791542774E0,8.802562952E-2,-3.602592945E-1,-1.280822754E-1,3.923523162E-1
7.796564806E0,1.838306785E-1,-3.139417171E-1,-9.376239777E-2,3.756920379E-1
7.801586785E0,2.264883518E-1,-3.139816523E-1,-1.947784424E-2,3.876349286E-1
7.806608868E0,2.997846007E-1,-3.103946447E-1,9.912586212E-2,4.427658285E-1
7.811630847E0,3.300080299E-1,-2.914444208E-1,1.998796463E-1,4.835256180E-1
7.816652879E0,3.817675114E-1,-2.713049650E-1,2.568330765E-1,5.341498347E-1
7.821681576E0,4.003738761E-1,-2.021137476E-1,2.466526031E-1,5.118463776E-1
7.826703608E0,3.623210788E-1,-1.147279739E-1,2.293653488E-1,4.439003665E-1
7.831725587E0,3.229666352E-1,-4.936182499E-2,2.311983109E-1,4.002457947E-1
7.836747618E0,2.889317274E-1,-8.874416351E-2,2.639522552E-1,4.012827715E-1
7.841769649E0,2.503347397E-1,-1.490244865E-1,3.629989624E-1,4.654503477E-1
7.846791629E0,2.095039487E-1,-1.684098244E-1,4.683790207E-1,5.400302589E-1
7.851798191E0,1.591234803E-1,-2.284055948E-1,5.206003189E-1,5.903508192E-1
7.856820222E0,1.063233018E-1,-2.245013714E-1,4.962968826E-1,5.549919873E-1
7.861842201E0,1.057413220E-1,-1.951813698E-1,4.388809204E-1,4.918266530E-1
7.866864233E0,4.514712095E-2,-1.284679174E-1,3.629512787E-1,3.876543551E-1
7.871886264E0,-6.546556950E-2,-4.089415073E-2,1.642131805E-1,1.814498306E-1
7.876908243E0,-1.497035623E-1,5.711436272E-3,-2.325630188E-2,1.516068357E-1
7.881945066E0,-2.506737709E-1,5.933094025E-2,-1.662588120E-1,3.065933666E-1
7.886967097E0,-2.684782147E-1,1.057476997E-1,-2.508926392E-1,3.823744816E-1
7.891989076E0,-2.443300486E-1,6.159043312E-2,-3.014335632E-1,3.928775218E-1
7.897011108E0,-2.998498678E-1,7.963812351E-2,-2.943964005E-1,4.276931313E-1
7.902033139E0,-3.466139436E-1,1.853283644E-1,-3.300457001E-1,5.132426255E-1
7.907055118E0,-4.202405214E-1,4.279398918E-2,-3.890552521E-1,5.742799061E-1
7.912064285E0,-4.015349746E-1,-9.892165661E-2,-3.619813919E-1,5.495874435E-1
7.917086316E0,-2.864269018E-1,-1.453888416E-1,-2.662725449E-1,4.172281792E-1
7.922108295E0,-1.320639253E-1,-1.713916063E-1,-1.596279144E-1,2.688810781E-1
7.927130326E0,4.482865334E-2,-1.675654650E-1,-6.590652466E-2,1.855571696E-1
7.932152358E0,1.898953915E-1,-9.098613262E-2,1.264667511E-2,2.109470891E-1
7.937174337E0,2.370961905E-1,1.320648193E-2,1.284923553E-1,2.699987038E-1
7.942203243E0,2.819271088E-1,1.858057976E-1,1.555538177E-1,3.717575544E-1
7.947225274E0,2.197065353E-1,1.749101877E-1,6.140327454E-2,2.874628629E-1
7.952247254E0,-2.728378773E-2,3.766655922E-3,6.804561615E-2,7.340843716E-2
7.957269285E0,-2.677024007E-1,-8.883202076E-2,1.960268021E-1,3.434853860E-1
7.962291316E0,-3.335406184E-1,1.478862762E-1,3.231897354E-1,4.874128639E-1
7.967313295E0,-5.023345947E-1,2.121704817E-1,4.020748138E-1,6.775105271E-1
7.972330066E0,-7.829211950E-1,1.099505424E-1,4.045686722E-1,8.881050219E-1
7.977352097E0,-8.441500664E-1,1.776688099E-1,3.717050552E-1,9.393190026E-1
7.982374076E0,-7.022060156E-1,3.618531227E-1,2.254352570E-1,8.214937771E-1
7.987396108E0,-7.168762088E-1,2.149275541E-1,1.994390488E-1,7.745200362E-1
7.992418139E0,-5.918468237E-1,1.955811977E-1,1.358509064E-1,6.379577857E-1
