"Time (s)","Gyroscope x (rad/s)","Gyroscope y (rad/s)","Gyroscope z (rad/s)","Absolute (rad/s)"
5.028865900E-2,2.090519853E-2,-1.877473295E-2,3.195699072E-3,2.827950522E-2
5.279985700E-2,9.653674066E-2,-1.770949923E-2,-2.450035885E-2,1.011594595E-1
5.531100300E-2,-8.921326138E-3,-2.796236658E-3,1.384802908E-2,1.670858788E-2
5.782214900E-2,-3.967992961E-2,3.994623839E-4,2.876129188E-2,4.900885935E-2
6.033334700E-2,3.368799388E-2,-2.796236658E-3,-1.065233024E-3,3.382062378E-2
6.283126400E-2,1.664426550E-2,-6.657706108E-4,3.195699072E-3,1.696134774E-2
6.534246100E-2,1.664426550E-2,1.464695437E-3,5.326164886E-3,1.753695924E-2
6.785360700E-2,1.664426550E-2,3.994623839E-4,4.260932095E-3,1.718565351E-2
7.036480500E-2,1.770949923E-2,3.994623839E-4,4.260932095E-3,1.821926111E-2
7.287595100E-2,1.451379992E-2,1.464695437E-3,1.065233024E-3,1.462636121E-2
7.538709700E-2,1.664426550E-2,1.464695437E-3,3.195699072E-3,1.701144907E-2
7.789829500E-2,1.451379992E-2,1.464695437E-3,6.391398143E-3,1.592625791E-2
8.040944100E-2,1.344856713E-2,3.994623839E-4,5.326164886E-3,1.447036836E-2
8.292058600E-2,1.131810062E-2,-6.657706108E-4,3.195699072E-3,1.177943736E-2
8.543178400E-2,1.344856713E-2,-2.796236658E-3,4.260932095E-3,1.438187886E-2
8.794293000E-2,7.057168987E-3,3.994623839E-4,6.391398143E-3,9.529594667E-3
9.045412800E-2,1.025286783E-2,-2.796236658E-3,4.260932095E-3,1.144970656E-2
9.295881600E-2,7.057168987E-3,-2.796236658E-3,2.130466048E-3,7.884253873E-3
9.547001400E-2,8.122402243E-3,-1.731003635E-3,3.195699072E-3,8.898442804E-3
9.798115900E-2,3.861469682E-3,-4.926702939E-3,4.260932095E-3,7.572244864E-3
1.004923570E-1,3.861469682E-3,-3.861469682E-3,6.391398143E-3,8.406656079E-3
1.030035030E-1,8.122402243E-3,-1.731003635E-3,2.130466048E-3,8.573720159E-3
1.055146490E-1,2.796236658E-3,-6.657706108E-4,1.065233024E-3,3.065438199E-3
1.080257950E-1,-1.464695437E-3,-2.796236658E-3,3.195699072E-3,4.491855377E-3
1.105369930E-1,1.731003635E-3,-2.796236658E-3,0.000000000E0,3.288664324E-3
1.130481910E-1,3.861469682E-3,-4.926702939E-3,0.000000000E0,6.259660530E-3
1.155593360E-1,3.861469682E-3,-2.796236658E-3,1.065233024E-3,4.885141651E-3
1.180704820E-1,3.861469682E-3,-9.187635034E-3,-1.065233024E-3,1.002288916E-2
1.205816800E-1,5.991935730E-3,-1.238333434E-2,1.065233024E-3,1.379800654E-2
1.230930860E-1,1.344856713E-2,-1.557903271E-2,-2.130466048E-3,2.069079756E-2
1.256042840E-1,9.187635034E-3,-1.344856713E-2,-2.130466048E-3,1.642606103E-2
1.281154300E-1,8.122402243E-3,-1.238333434E-2,-2.130466048E-3,1.496192745E-2
1.306266280E-1,4.926702939E-3,-1.770949923E-2,-3.195699072E-3,1.865773987E-2
1.331377220E-1,1.131810062E-2,-1.770949923E-2,-1.065233024E-3,2.104425066E-2
1.356489200E-1,1.557903271E-2,-1.877473295E-2,-1.065233024E-3,2.441990129E-2
1.381600660E-1,1.664426550E-2,-1.983996481E-2,0.000000000E0,2.589702256E-2
1.406712640E-1,1.131810062E-2,-1.664426550E-2,0.000000000E0,2.012786565E-2
1.431824090E-1,1.238333434E-2,-1.877473295E-2,-3.195699072E-3,2.271673522E-2
1.456936070E-1,1.451379992E-2,-1.770949923E-2,-1.065233024E-3,2.292185578E-2
1.482047530E-1,1.557903271E-2,-1.664426550E-2,-1.065233024E-3,2.282263253E-2
1.507159510E-1,1.451379992E-2,-1.238333434E-2,0.000000000E0,1.907871478E-2
1.532454300E-1,1.451379992E-2,-1.131810062E-2,-4.260932095E-3,1.889193828E-2
1.557565760E-1,1.983996481E-2,-1.131810062E-2,1.065233024E-3,2.286609557E-2
1.582677740E-1,2.090519853E-2,-5.991935730E-3,3.195699072E-3,2.198051664E-2
1.607789720E-1,1.770949923E-2,-7.057168987E-3,0.000000000E0,1.906384004E-2
1.632901180E-1,1.131810062E-2,-5.991935730E-3,-5.326164886E-3,1.386977749E-2
1.658012640E-1,2.197043039E-2,-5.991935730E-3,-2.130466048E-3,2.287229745E-2
1.683124090E-1,1.770949923E-2,-3.861469682E-3,-1.065233024E-3,1.815687287E-2
1.708236590E-1,1.877473295E-2,-3.861469682E-3,0.000000000E0,1.916772144E-2
1.733348050E-1,1.983996481E-2,-8.122402243E-3,0.000000000E0,2.143822805E-2
1.758459510E-1,1.557903271E-2,-9.187635034E-3,0.000000000E0,1.808642855E-2
1.783570970E-1,1.238333434E-2,-4.926702939E-3,1.065233024E-3,1.336989501E-2
1.808682950E-1,1.344856713E-2,-7.057168987E-3,-1.065233024E-3,1.522505545E-2
1.833769930E-1,1.131810062E-2,-1.025286783E-2,-2.130466048E-3,1.541945478E-2
1.858881390E-1,1.131810062E-2,-8.122402243E-3,0.000000000E0,1.393100211E-2
1.883993360E-1,5.991935730E-3,-1.238333434E-2,-2.130466048E-3,1.392081710E-2
1.909105340E-1,7.057168987E-3,-1.131810062E-2,2.130466048E-3,1.350710632E-2
1.934216800E-1,7.057168987E-3,-1.238333434E-2,1.065233024E-3,1.429284173E-2
1.959328260E-1,5.991935730E-3,-1.557903271E-2,-1.065233024E-3,1.672555755E-2
1.984439720E-1,-2.529928461E-3,-1.557903271E-2,0.000000000E0,1.578311751E-2
2.009551700E-1,-3.595161485E-3,-1.770949923E-2,1.065233024E-3,1.810210679E-2
2.034663160E-1,-1.464695437E-3,-1.770949923E-2,1.065233024E-3,1.780186555E-2
2.059775140E-1,-4.660394508E-3,-1.344856713E-2,1.065233024E-3,1.427297993E-2
2.084886590E-1,-7.856093347E-3,-1.877473295E-2,3.195699072E-3,2.060148763E-2
2.109998570E-1,-5.725627299E-3,-1.877473295E-2,5.326164886E-3,2.033817685E-2
2.135113160E-1,-1.105179265E-2,-1.664426550E-2,4.260932095E-3,2.042863767E-2
2.160224610E-1,-8.921326138E-3,-1.664426550E-2,2.130466048E-3,1.900422373E-2
2.185336590E-1,-7.856093347E-3,-1.131810062E-2,1.065233024E-3,1.381855006E-2
2.210448050E-1,-1.318225823E-2,-1.131810062E-2,1.065233024E-3,1.740706911E-2
2.235560030E-1,-8.921326138E-3,-1.025286783E-2,2.130466048E-3,1.375682537E-2
2.260671490E-1,-7.856093347E-3,-1.131810062E-2,1.065233024E-3,1.381855006E-2
2.285783470E-1,-7.856093347E-3,-1.131810062E-2,0.000000000E0,1.377743097E-2
2.310894930E-1,-1.105179265E-2,-5.991935730E-3,2.130466048E-3,1.275085488E-2
2.336006390E-1,-1.105179265E-2,-3.861469682E-3,2.130466048E-3,1.189924176E-2
2.361118360E-1,-9.986559860E-3,-2.796236658E-3,3.195699072E-3,1.085185744E-2
2.386229820E-1,-7.856093347E-3,-5.991935730E-3,1.065233024E-3,9.937616307E-3
2.411341800E-1,-8.921326138E-3,-8.122402243E-3,3.195699072E-3,1.248102443E-2
2.436466280E-1,-6.790860556E-3,-6.657706108E-4,3.195699072E-3,7.534688458E-3
2.461577740E-1,-3.595161485E-3,3.994623839E-4,3.195699072E-3,4.826722372E-3
2.486689720E-1,-2.529928461E-3,1.464695437E-3,4.260932095E-3,5.167341005E-3
2.511801700E-1,-2.529928461E-3,3.595161485E-3,2.130466048E-3,4.885141727E-3
2.536913160E-1,-1.464695437E-3,6.790860556E-3,1.065233024E-3,7.028217499E-3
2.562024610E-1,-3.994623839E-4,9.986559860E-3,3.195699072E-3,1.049301866E-2
2.587136590E-1,1.731003635E-3,7.856093347E-3,4.260932095E-3,9.103302620E-3
2.612248050E-1,7.057168987E-3,4.660394508E-3,3.195699072E-3,9.040763443E-3
2.637360030E-1,5.991935730E-3,2.529928461E-3,4.260932095E-3,7.775562625E-3
2.662471490E-1,8.122402243E-3,5.725627299E-3,-1.065233024E-3,9.994545891E-3
2.687582950E-1,9.187635034E-3,2.529928461E-3,0.000000000E0,9.529594721E-3
2.712694930E-1,4.926702939E-3,3.595161485E-3,0.000000000E0,6.098982534E-3
2.737809510E-1,8.122402243E-3,3.595161485E-3,-3.195699072E-3,9.439867417E-3
2.762920970E-1,1.131810062E-2,2.529928461E-3,-2.130466048E-3,1.179147256E-2
2.788032950E-1,9.187635034E-3,4.660394508E-3,1.065233024E-3,1.035696075E-2
2.813144410E-1,7.057168987E-3,4.660394508E-3,0.000000000E0,8.457121915E-3
2.838256390E-1,9.187635034E-3,6.790860556E-3,-2.130466048E-3,1.162184625E-2
2.863367840E-1,9.187635034E-3,6.790860556E-3,-2.130466048E-3,1.162184625E-2
2.888479300E-1,1.238333434E-2,1.105179265E-2,-1.065233024E-3,1.663201165E-2
2.913591280E-1,9.187635034E-3,9.986559860E-3,0.000000000E0,1.356996740E-2
2.938702740E-1,1.025286783E-2,1.211702544E-2,0.000000000E0,1.587273147E-2
2.963814720E-1,9.187635034E-3,1.531272475E-2,-1.065233024E-3,1.788929563E-2
2.988926180E-1,9.187635034E-3,1.637795754E-2,1.065233024E-3,1.880916936E-2
3.014038160E-1,4.926702939E-3,1.744319126E-2,1.065233024E-3,1.815687320E-2
3.039118890E-1,3.861469682E-3,1.850842312E-2,1.065233024E-3,1.893693206E-2
3.064230340E-1,1.731003635E-3,2.276935615E-2,0.000000000E0,2.283505973E-2
3.089342320E-1,-3.994623839E-4,2.383458801E-2,0.000000000E0,2.383793522E-2
3.114454300E-1,-3.595161485E-3,2.596505545E-2,-1.065233024E-3,2.623440512E-2
3.139565760E-1,-2.529928461E-3,2.170412242E-2,-2.130466048E-3,2.195468865E-2
3.164677220E-1,-3.595161485E-3,2.383458801E-2,-1.065233024E-3,2.412773286E-2
3.189788680E-1,-2.529928461E-3,2.703028731E-2,1.065233024E-3,2.716931526E-2
3.214900660E-1,-4.660394508E-3,2.489982173E-2,-1.065233024E-3,2.535458776E-2
3.240012110E-1,-1.105179265E-2,2.063889056E-2,0.000000000E0,2.341166215E-2
3.265124090E-1,-8.921326138E-3,2.170412242E-2,2.130466048E-3,2.356263729E-2
3.290235550E-1,-1.424749196E-2,2.383458801E-2,2.130466048E-3,2.784991020E-2
3.315347530E-1,-1.424749196E-2,2.276935615E-2,2.130466048E-3,2.694389526E-2
3.340432430E-1,-9.986559860E-3,2.063889056E-2,4.260932095E-3,2.332060728E-2
3.365543890E-1,-1.424749196E-2,1.744319126E-2,4.260932095E-3,2.292185618E-2
3.390655860E-1,-1.211702544E-2,1.531272475E-2,6.391398143E-3,2.054633337E-2
3.415767840E-1,-1.424749196E-2,1.318225823E-2,2.130466048E-3,1.952695175E-2
3.440879300E-1,-9.986559860E-3,8.921326138E-3,2.130466048E-3,1.355951044E-2
3.465990760E-1,-8.921326138E-3,3.595161485E-3,2.130466048E-3,9.851605541E-3
3.491102220E-1,-8.921326138E-3,2.529928461E-3,1.065233024E-3,9.334094465E-3
3.516214200E-1,-1.105179265E-2,-6.657706108E-4,3.195699072E-3,1.152379555E-2
3.541325660E-1,-8.921326138E-3,-1.731003635E-3,5.326164886E-3,1.053349259E-2
3.566437640E-1,-7.856093347E-3,-5.991935730E-3,5.326164886E-3,1.122450573E-2
3.591549090E-1,-9.986559860E-3,-1.131810062E-2,5.326164886E-3,1.600621166E-2
3.616661070E-1,-2.529928461E-3,-1.238333434E-2,7.456631400E-3,1.467476948E-2
3.641812640E-1,6.657706108E-4,-1.451379992E-2,5.326164886E-3,1.547454914E-2
3.666924610E-1,1.731003635E-3,-1.983996481E-2,3.195699072E-3,2.017010336E-2
3.692036070E-1,4.926702939E-3,-2.290250920E-2,5.326164886E-3,2.402426610E-2
3.717148050E-1,5.991935730E-3,-2.716344222E-2,2.130466048E-3,2.789793492E-2
3.742259510E-1,8.122402243E-3,-2.716344222E-2,2.130466048E-3,2.843175860E-2
3.767370970E-1,9.187635034E-3,-2.716344222E-2,6.391398143E-3,2.937882233E-2
3.792482430E-1,1.025286783E-2,-1.877473295E-2,4.260932095E-3,2.181209385E-2
3.817594410E-1,9.187635034E-3,-1.877473295E-2,2.130466048E-3,2.101052404E-2
3.842705860E-1,1.344856713E-2,-2.090519853E-2,2.130466048E-3,2.494855044E-2
3.867817840E-1,1.238333434E-2,-2.090519853E-2,3.195699072E-3,2.450687225E-2
3.892929300E-1,1.131810062E-2,-2.090519853E-2,4.260932095E-3,2.415123743E-2
3.918041280E-1,1.557903271E-2,-1.344856713E-2,7.456631400E-3,2.188998789E-2
3.943139720E-1,1.877473295E-2,-1.557903271E-2,2.130466048E-3,2.448950271E-2
3.968251180E-1,1.983996481E-2,-1.664426550E-2,5.326164886E-3,2.643905842E-2
3.993363160E-1,1.983996481E-2,-1.557903271E-2,2.130466048E-3,2.531539748E-2
4.018475140E-1,2.303566411E-2,-1.131810062E-2,-1.065233024E-3,2.568805061E-2
4.043586590E-1,1.877473295E-2,-1.238333434E-2,0.000000000E0,2.249083295E-2
4.068698050E-1,1.664426550E-2,-1.344856713E-2,0.000000000E0,2.139849368E-2
4.093809510E-1,1.770949923E-2,-7.057168987E-3,0.000000000E0,1.906384004E-2
4.118921490E-1,1.877473295E-2,-2.796236658E-3,2.130466048E-3,1.910100579E-2
4.144032950E-1,1.664426550E-2,-3.861469682E-3,1.065233024E-3,1.711949893E-2
4.169144930E-1,1.983996481E-2,1.464695437E-3,0.000000000E0,1.989395728E-2
4.194256390E-1,1.877473295E-2,6.790860556E-3,0.000000000E0,1.996512921E-2
4.219368360E-1,1.770949923E-2,1.464695437E-3,1.065233024E-3,1.780186555E-2
4.244444410E-1,1.664426550E-2,3.595161485E-3,-1.065233024E-3,1.706140327E-2
4.269555860E-1,1.451379992E-2,3.595161485E-3,-1.065233024E-3,1.499034008E-2
4.294667840E-1,1.238333434E-2,5.725627299E-3,-4.260932095E-3,1.429284155E-2
4.319779300E-1,1.451379992E-2,4.660394508E-3,-1.065233024E-3,1.528085032E-2
4.344891280E-1,1.238333434E-2,4.660394508E-3,1.065233024E-3,1.327407126E-2
4.370002740E-1,1.238333434E-2,1.464695437E-3,-2.130466048E-3,1.265034338E-2
4.395114200E-1,8.122402243E-3,-6.657706108E-4,-2.130466048E-3,8.423511993E-3
4.420226180E-1,7.057168987E-3,-7.057168987E-3,1.065233024E-3,1.003703092E-2
4.445337640E-1,4.926702939E-3,-5.991935730E-3,-1.065233024E-3,7.830096873E-3
4.470449610E-1,7.057168987E-3,-3.861469682E-3,1.065233024E-3,8.114758383E-3
4.495561070E-1,-3.994623839E-4,-8.122402243E-3,-3.195699072E-3,8.737590111E-3
4.520673050E-1,-2.529928461E-3,-4.926702939E-3,-5.326164886E-3,7.683812352E-3
4.545797010E-1,6.657706108E-4,-3.861469682E-3,-3.195699072E-3,5.056351567E-3
4.570908470E-1,-2.529928461E-3,-3.861469682E-3,-1.065233024E-3,4.737742872E-3
4.596020450E-1,-5.725627299E-3,-6.657706108E-4,-3.195699072E-3,6.590792899E-3
4.621132430E-1,-4.660394508E-3,-2.796236658E-3,-1.065233024E-3,5.538315432E-3
4.646243890E-1,-8.921326138E-3,-5.991935730E-3,-1.065233024E-3,1.079944791E-2
4.671355340E-1,-5.725627299E-3,-7.057168987E-3,-3.195699072E-3,9.633220367E-3
4.696467320E-1,-3.595161485E-3,-1.238333434E-2,-2.130466048E-3,1.306946981E-2
4.721579300E-1,-3.595161485E-3,-1.025286783E-2,-2.130466048E-3,1.107182778E-2
4.746690240E-1,-1.464695437E-3,-1.131810062E-2,0.000000000E0,1.141248151E-2
4.771802220E-1,-1.464695437E-3,-1.344856713E-2,-2.130466048E-3,1.369482297E-2
4.796913680E-1,-1.464695437E-3,-1.238333434E-2,-1.065233024E-3,1.251507185E-2
4.822025660E-1,2.796236658E-3,-1.238333434E-2,-3.195699072E-3,1.309115737E-2
4.847335550E-1,4.926702939E-3,-1.131810062E-2,-1.065233024E-3,1.238977501E-2
4.872447530E-1,9.187635034E-3,-1.131810062E-2,-4.260932095E-3,1.518774445E-2
4.897558470E-1,1.025286783E-2,-1.025286783E-2,-4.260932095E-3,1.511284684E-2
4.922670970E-1,9.187635034E-3,-1.238333434E-2,-2.130466048E-3,1.556594014E-2
4.947781910E-1,9.187635034E-3,-1.344856713E-2,-3.195699072E-3,1.659786396E-2
4.972893890E-1,1.877473295E-2,-1.131810062E-2,-2.130466048E-3,2.202564152E-2
4.998005340E-1,1.983996481E-2,-1.025286783E-2,1.065233024E-3,2.235800133E-2
5.023117320E-1,1.770949923E-2,-8.122402243E-3,-3.195699072E-3,1.974366414E-2
5.048228780E-1,1.983996481E-2,-7.057168987E-3,-5.326164886E-3,2.172086255E-2
5.073340760E-1,1.664426550E-2,-8.122402243E-3,-4.260932095E-3,1.900422413E-2
5.098452220E-1,1.983996481E-2,-8.122402243E-3,-2.130466048E-3,2.154382759E-2
5.123564200E-1,1.877473295E-2,-4.926702939E-3,-3.195699072E-3,1.967169265E-2
5.148478780E-1,1.877473295E-2,-3.861469682E-3,-1.065233024E-3,1.919729842E-2
5.173590240E-1,1.770949923E-2,-4.926702939E-3,-4.260932095E-3,1.886940134E-2
5.198701700E-1,1.664426550E-2,-2.796236658E-3,-2.130466048E-3,1.701144906E-2
5.223813680E-1,1.770949923E-2,3.994623839E-4,-3.195699072E-3,1.799995627E-2
5.248925660E-1,1.344856713E-2,3.994623839E-4,-3.195699072E-3,1.382881125E-2
5.274037110E-1,1.664426550E-2,-2.796236658E-3,-2.130466048E-3,1.701144906E-2
5.299148570E-1,1.451379992E-2,3.994623839E-4,-1.065233024E-3,1.455831995E-2
5.324260550E-1,1.664426550E-2,1.464695437E-3,-3.195699072E-3,1.701144907E-2
5.349372530E-1,1.131810062E-2,1.464695437E-3,-1.065233024E-3,1.146208775E-2
5.374483990E-1,5.991935730E-3,3.994623839E-4,1.065233024E-3,6.098982324E-3
5.399595450E-1,5.991935730E-3,-2.796236658E-3,1.065233024E-3,6.697533474E-3
5.424707430E-1,7.057168987E-3,-2.796236658E-3,0.000000000E0,7.590953402E-3
5.449675140E-1,3.861469682E-3,-5.991935730E-3,1.065233024E-3,7.207562923E-3
5.474786590E-1,-3.994623839E-4,-3.861469682E-3,2.130466048E-3,4.428250657E-3
5.499898050E-1,-3.994623839E-4,3.994623839E-4,1.065233024E-3,1.205761912E-3
5.525009510E-1,-2.529928461E-3,-4.926702939E-3,2.130466048E-3,5.933955295E-3
5.550120970E-1,-6.790860556E-3,-5.991935730E-3,2.130466048E-3,9.303653393E-3
5.575232430E-1,-4.660394508E-3,-4.926702939E-3,1.065233024E-3,6.864867094E-3
5.600343890E-1,-6.790860556E-3,-9.187635034E-3,1.065233024E-3,1.147445624E-2
5.625455340E-1,-1.211702544E-2,-5.991935730E-3,0.000000000E0,1.351760331E-2
5.650566800E-1,-1.211702544E-2,-3.861469682E-3,2.130466048E-3,1.289465545E-2
5.675678260E-1,-9.986559860E-3,-5.991935730E-3,0.000000000E0,1.164622993E-2
5.700789720E-1,-1.318225823E-2,-4.926702939E-3,2.130466048E-3,1.423317321E-2
5.725901180E-1,-1.318225823E-2,-3.861469682E-3,7.456631400E-3,1.562959475E-2
5.751042320E-1,-1.531272475E-2,-3.861469682E-3,3.195699072E-3,1.611219972E-2
5.776153780E-1,-1.531272475E-2,-4.926702939E-3,2.130466048E-3,1.622623883E-2
5.801265240E-1,-1.531272475E-2,-1.731003635E-3,2.130466048E-3,1.555682482E-2
5.826376700E-1,-1.211702544E-2,1.464695437E-3,6.391398143E-3,1.377743113E-2
5.851488160E-1,-1.531272475E-2,-6.657706108E-4,4.260932095E-3,1.590843588E-2
5.876599610E-1,-1.531272475E-2,3.994623839E-4,5.326164886E-3,1.621749493E-2
5.901711070E-1,-1.211702544E-2,3.994623839E-4,8.521864191E-3,1.481904332E-2
5.926822530E-1,-9.986559860E-3,3.595161485E-3,5.326164886E-3,1.187537773E-2
5.951933990E-1,-1.531272475E-2,3.595161485E-3,3.195699072E-3,1.605045849E-2
5.977045450E-1,-1.105179265E-2,-1.731003635E-3,3.195699072E-3,1.163404431E-2
6.002156910E-1,-7.856093347E-3,1.464695437E-3,5.326164886E-3,9.603726766E-3
6.027268360E-1,-7.856093347E-3,1.464695437E-3,2.130466048E-3,8.270575614E-3
6.052350140E-1,-6.790860556E-3,1.464695437E-3,3.195699072E-3,7.646804063E-3
6.077462110E-1,-5.725627299E-3,5.725627299E-3,0.000000000E0,8.097259780E-3
6.102573570E-1,-3.595161485E-3,4.660394508E-3,2.130466048E-3,6.259660426E-3
6.127685030E-1,-3.595161485E-3,-6.657706108E-4,3.195699072E-3,4.856019889E-3
6.152796490E-1,1.731003635E-3,3.994623839E-4,3.195699072E-3,3.656287234E-3
6.177907950E-1,2.796236658E-3,4.660394508E-3,1.065233024E-3,5.538315432E-3
6.203019410E-1,3.861469682E-3,3.595161485E-3,2.130466048E-3,5.689905077E-3
6.228130860E-1,3.861469682E-3,-6.657706108E-4,-1.065233024E-3,4.060655121E-3
6.253242320E-1,3.861469682E-3,4.660394508E-3,-2.130466048E-3,6.416315973E-3
6.278353780E-1,9.187635034E-3,5.725627299E-3,4.260932095E-3,1.163404434E-2
6.303465240E-1,8.122402243E-3,4.660394508E-3,-1.065233024E-3,9.424829790E-3
6.328576700E-1,5.991935730E-3,3.595161485E-3,0.000000000E0,6.987737824E-3
6.353728780E-1,7.057168987E-3,5.725627299E-3,-1.065233024E-3,9.149926965E-3
6.378840240E-1,9.187635034E-3,8.921326138E-3,1.065233024E-3,1.285058049E-2
6.403951700E-1,9.187635034E-3,1.105179265E-2,2.130466048E-3,1.452906205E-2
6.429063160E-1,9.187635034E-3,6.790860556E-3,1.065233024E-3,1.147445624E-2
6.454174610E-1,8.122402243E-3,7.856093347E-3,0.000000000E0,1.130007172E-2
6.479286070E-1,5.991935730E-3,8.921326138E-3,-2.130466048E-3,1.095592257E-2
6.504397530E-1,4.926702939E-3,6.790860556E-3,-4.260932095E-3,9.409767864E-3
6.529508990E-1,9.187635034E-3,2.529928461E-3,-3.195699072E-3,1.005115258E-2
6.554620450E-1,8.122402243E-3,1.464695437E-3,0.000000000E0,8.253408443E-3
6.579731910E-1,8.122402243E-3,-1.731003635E-3,0.000000000E0,8.304805343E-3
6.604843360E-1,3.861469682E-3,-5.991935730E-3,-4.260932095E-3,8.304804888E-3
6.629955340E-1,1.025286783E-2,-7.057168987E-3,-2.130466048E-3,1.262789841E-2
6.655098050E-1,4.926702939E-3,-1.557903271E-2,-5.326164886E-3,1.718565374E-2
6.680209510E-1,7.057168987E-3,-1.983996481E-2,-2.130466048E-3,2.116522438E-2
6.705320970E-1,7.057168987E-3,-1.983996481E-2,-1.065233024E-3,2.108465222E-2
6.730432430E-1,5.991935730E-3,-2.090519853E-2,-1.065233024E-3,2.177304161E-2
6.755543890E-1,-3.994623839E-4,-2.290250920E-2,-4.260932095E-3,2.329892787E-2
6.780655340E-1,6.657706108E-4,-2.197043039E-2,-5.326164886E-3,2.261661103E-2
6.805766800E-1,6.657706108E-4,-2.396774292E-2,-2.130466048E-3,2.407145273E-2
6.830878260E-1,-4.660394508E-3,-2.396774292E-2,-2.130466048E-3,2.450940357E-2
6.855989720E-1,-6.790860556E-3,-2.197043039E-2,-4.260932095E-3,2.338741416E-2
6.881101180E-1,-3.595161485E-3,-1.664426550E-2,-2.130466048E-3,1.716087544E-2
6.906212640E-1,-1.464695437E-3,-1.877473295E-2,0.000000000E0,1.883177979E-2
6.931324090E-1,-7.856093347E-3,-1.770949923E-2,-3.195699072E-3,1.963560689E-2
6.956587110E-1,-9.986559860E-3,-1.131810062E-2,-3.195699072E-3,1.542865101E-2
6.981698570E-1,-1.105179265E-2,-7.057168987E-3,0.000000000E0,1.311280881E-2
7.006810030E-1,-1.424749196E-2,-1.131810062E-2,0.000000000E0,1.819589043E-2
7.031921490E-1,-1.105179265E-2,-9.187635034E-3,-2.130466048E-3,1.452906205E-2
7.057032950E-1,-1.424749196E-2,-3.861469682E-3,1.065233024E-3,1.479988840E-2
7.082144410E-1,-1.637795754E-2,-3.861469682E-3,1.065233024E-3,1.686069876E-2
7.107255860E-1,-1.744319126E-2,-3.861469682E-3,2.130466048E-3,1.799207478E-2
7.132367320E-1,-1.744319126E-2,-1.731003635E-3,1.065233024E-3,1.756120771E-2
7.157478780E-1,-1.637795754E-2,-2.796236658E-3,4.260932095E-3,1.715260840E-2
7.182590240E-1,-1.744319126E-2,-1.731003635E-3,2.130466048E-3,1.765786455E-2
7.207701700E-1,-1.744319126E-2,-4.926702939E-3,2.130466048E-3,1.825037558E-2
7.232813160E-1,-1.637795754E-2,-2.796236658E-3,3.195699072E-3,1.691948359E-2
7.257945450E-1,-1.211702544E-2,-4.926702939E-3,-2.130466048E-3,1.325268248E-2
7.283056910E-1,-7.856093347E-3,-4.926702939E-3,3.195699072E-3,9.808317750E-3
7.308168360E-1,-9.986559860E-3,-1.731003635E-3,2.130466048E-3,1.035696080E-2
7.333279820E-1,-4.660394508E-3,-3.861469682E-3,0.000000000E0,6.052290895E-3
7.358391280E-1,-2.529928461E-3,-4.926702939E-3,0.000000000E0,5.538315616E-3
7.383502740E-1,6.657706108E-4,-2.796236658E-3,2.130466048E-3,3.577859072E-3
7.408614200E-1,3.861469682E-3,3.994623839E-4,0.000000000E0,3.882076545E-3
7.433725660E-1,4.926702939E-3,-1.731003635E-3,-1.065233024E-3,5.329493112E-3
7.458837110E-1,7.057168987E-3,-2.796236658E-3,0.000000000E0,7.590953402E-3
7.483948570E-1,2.796236658E-3,2.529928461E-3,2.130466048E-3,4.331092593E-3
7.509060030E-1,8.122402243E-3,5.725627299E-3,2.130466048E-3,1.016342028E-2
7.534171490E-1,9.187635034E-3,6.790860556E-3,2.130466048E-3,1.162184625E-2
7.559186070E-1,1.451379992E-2,6.790860556E-3,4.260932095E-3,1.658076348E-2
7.584297530E-1,1.557903271E-2,8.921326138E-3,2.130466048E-3,1.807858418E-2
7.609408990E-1,1.770949923E-2,7.856093347E-3,3.195699072E-3,1.963560689E-2
7.634520450E-1,1.770949923E-2,1.464695437E-3,1.065233024E-3,1.780186555E-2
7.659631910E-1,1.770949923E-2,4.660394508E-3,1.065233024E-3,1.834340103E-2
7.684743360E-1,1.983996481E-2,3.595161485E-3,2.130466048E-3,2.027531196E-2
7.709854820E-1,2.197043039E-2,3.994623839E-4,-2.130466048E-3,2.207709825E-2
7.734966280E-1,1.983996481E-2,2.529928461E-3,-2.130466048E-3,2.011376710E-2
7.760077740E-1,2.303566411E-2,4.660394508E-3,-2.130466048E-3,2.359872843E-2
7.785189200E-1,2.410089783E-2,1.464695437E-3,1.065233024E-3,2.416885042E-2
7.810300660E-1,2.623136342E-2,-6.657706108E-4,2.130466048E-3,2.632615739E-2
7.835412110E-1,2.623136342E-2,-6.657706108E-4,3.195699072E-3,2.643369383E-2
7.860508470E-1,2.516612969E-2,-6.657706108E-4,2.130466048E-3,2.526492074E-2
7.885619930E-1,2.303566411E-2,-2.796236658E-3,0.000000000E0,2.320475728E-2
7.910731390E-1,2.516612969E-2,-1.731003635E-3,1.065233024E-3,2.524807277E-2
7.935842840E-1,2.197043039E-2,-1.731003635E-3,-1.065233024E-3,2.206424498E-2
7.960954300E-1,2.090519853E-2,1.464695437E-3,1.065233024E-3,2.098350256E-2
7.986065760E-1,2.090519853E-2,-6.657706108E-4,-1.065233024E-3,2.094290566E-2
8.011177220E-1,1.983996481E-2,-2.796236658E-3,2.130466048E-3,2.014899572E-2
8.036288680E-1,1.557903271E-2,-3.861469682E-3,3.195699072E-3,1.636550338E-2
8.061400140E-1,1.557903271E-2,-6.657706108E-4,2.130466048E-3,1.573811921E-2
8.086511590E-1,1.238333434E-2,3.994623839E-4,-1.065233024E-3,1.243548394E-2
8.111623050E-1,1.344856713E-2,-6.657706108E-4,2.130466048E-3,1.363253806E-2
8.136735030E-1,1.344856713E-2,1.464695437E-3,7.456631400E-3,1.544702698E-2
8.161855860E-1,1.131810062E-2,-6.657706108E-4,2.130466048E-3,1.153609716E-2
8.186967320E-1,3.861469682E-3,3.994623839E-4,3.195699072E-3,5.028221441E-3
8.212078780E-1,2.796236658E-3,-2.796236658E-3,2.130466048E-3,4.491855349E-3
8.237190240E-1,2.796236658E-3,-8.122402243E-3,-2.130466048E-3,8.850493954E-3
8.262301700E-1,1.731003635E-3,-3.861469682E-3,4.260932095E-3,6.005236383E-3
8.287413160E-1,4.926702939E-3,-8.122402243E-3,-2.130466048E-3,9.735743712E-3
8.312524610E-1,6.657706108E-4,-1.344856713E-2,-2.130466048E-3,1.363253806E-2
8.337636070E-1,-3.595161485E-3,-1.344856713E-2,1.065233024E-3,1.396151372E-2
8.362747530E-1,-4.660394508E-3,-1.025286783E-2,-1.065233024E-3,1.131261672E-2
8.387858990E-1,-3.994623839E-4,-7.057168987E-3,0.000000000E0,7.068465484E-3
8.412970450E-1,-7.856093347E-3,-7.057168987E-3,2.130466048E-3,1.077314821E-2
8.438081910E-1,-4.660394508E-3,-7.057168987E-3,-1.065233024E-3,8.523944655E-3
8.463249610E-1,-5.725627299E-3,-5.991935730E-3,-1.065233024E-3,8.355885540E-3
8.488361070E-1,-7.856093347E-3,-4.926702939E-3,2.130466048E-3,9.514698635E-3
8.513472530E-1,-1.464695437E-3,-1.731003635E-3,3.195699072E-3,3.918443423E-3
8.538583990E-1,-4.660394508E-3,3.994623839E-4,2.130466048E-3,5.139818358E-3
8.563695450E-1,6.657706108E-4,2.529928461E-3,5.326164886E-3,5.933954914E-3
8.588806910E-1,-2.529928461E-3,2.529928461E-3,1.065233024E-3,3.733068098E-3
8.613918360E-1,-6.790860556E-3,-1.731003635E-3,-1.065233024E-3,7.088503514E-3
8.639029820E-1,-4.660394508E-3,3.994623839E-4,1.065233024E-3,4.797245935E-3
8.664141280E-1,-3.994623839E-4,3.595161485E-3,0.000000000E0,3.617285764E-3
8.689252740E-1,-3.595161485E-3,6.790860556E-3,0.000000000E0,7.683812413E-3
8.714364200E-1,6.657706108E-4,3.595161485E-3,2.130466048E-3,4.231704407E-3
8.739475660E-1,-3.994623839E-4,4.660394508E-3,2.130466048E-3,5.139818358E-3
8.764525660E-1,1.731003635E-3,6.790860556E-3,2.130466048E-3,7.324687451E-3
8.789637110E-1,1.731003635E-3,6.790860556E-3,1.065233024E-3,7.088503514E-3
8.814748570E-1,-1.464695437E-3,5.725627299E-3,0.000000000E0,5.910003443E-3
8.839860030E-1,-3.994623839E-4,4.660394508E-3,1.065233024E-3,4.797245935E-3
8.864971490E-1,2.796236658E-3,5.725627299E-3,6.391398143E-3,9.025060534E-3
8.890082950E-1,5.991935730E-3,1.464695437E-3,2.130466048E-3,6.525910825E-3
8.915194410E-1,9.187635034E-3,2.529928461E-3,5.326164886E-3,1.091701461E-2
8.940305860E-1,5.991935730E-3,1.464695437E-3,0.000000000E0,6.168356873E-3
8.965417320E-1,9.187635034E-3,1.464695437E-3,2.130466048E-3,9.544467289E-3
8.990528780E-1,5.991935730E-3,-1.731003635E-3,3.195699072E-3,7.008006844E-3
9.015640240E-1,7.057168987E-3,-2.796236658E-3,4.260932095E-3,8.705062658E-3
9.040751700E-1,8.122402243E-3,-4.926702939E-3,5.326164886E-3,1.089099869E-2
9.065870450E-1,4.926702939E-3,-8.122402243E-3,3.195699072E-3,1.002288943E-2
9.090981910E-1,3.861469682E-3,-9.187635034E-3,0.000000000E0,9.966121895E-3
9.116093360E-1,7.057168987E-3,-9.187635034E-3,-1.065233024E-3,1.163404457E-2
9.141204820E-1,2.796236658E-3,-9.187635034E-3,4.260932095E-3,1.050652746E-2
9.166316280E-1,3.861469682E-3,-1.131810062E-2,2.130466048E-3,1.214698462E-2
9.191427740E-1,4.926702939E-3,-7.057168987E-3,3.195699072E-3,9.180878417E-3
9.216539200E-1,9.187635034E-3,-9.187635034E-3,2.130466048E-3,1.316678247E-2
9.241650660E-1,9.187635034E-3,-1.025286783E-2,1.065233024E-3,1.380828221E-2
9.266762110E-1,3.861469682E-3,-1.025286783E-2,-1.065233024E-3,1.100758684E-2
9.291873570E-1,6.657706108E-4,-8.122402243E-3,-2.130466048E-3,8.423511993E-3
9.316985030E-1,-3.994623839E-4,-7.057168987E-3,-5.326164886E-3,8.850493585E-3
9.342096490E-1,-1.464695437E-3,-9.187635034E-3,-2.130466048E-3,9.544467289E-3
9.367331390E-1,-2.529928461E-3,-9.187635034E-3,-2.130466048E-3,9.764837998E-3
9.392442840E-1,-4.660394508E-3,-1.025286783E-2,-1.065233024E-3,1.131261672E-2
9.417554300E-1,-1.105179265E-2,-1.025286783E-2,-2.130466048E-3,1.522505517E-2
9.442665760E-1,-7.856093347E-3,-9.187635034E-3,-3.195699072E-3,1.250373275E-2
9.467777220E-1,-6.790860556E-3,-5.991935730E-3,-3.195699072E-3,9.603727060E-3
9.492888680E-1,-7.856093347E-3,-7.057168987E-3,-1.065233024E-3,1.061397938E-2
9.518000140E-1,-9.986559860E-3,-5.991935730E-3,-2.130466048E-3,1.183949143E-2
9.543111590E-1,-9.986559860E-3,-5.991935730E-3,-3.195699072E-3,1.207671993E-2
9.568223050E-1,-1.424749196E-2,-8.122402243E-3,-4.260932095E-3,1.694461530E-2
9.593334510E-1,-1.531272475E-2,-4.926702939E-3,-1.065233024E-3,1.612100066E-2
9.618445970E-1,-1.637795754E-2,-8.122402243E-3,-4.260932095E-3,1.877142652E-2
9.643557430E-1,-1.850842312E-2,-8.122402243E-3,-5.326164886E-3,2.090222900E-2
9.668548570E-1,-1.957365684E-2,-2.796236658E-3,-1.065233024E-3,1.980105308E-2
9.693660030E-1,-2.063889056E-2,-3.861469682E-3,0.000000000E0,2.099701769E-2
9.718772010E-1,-1.850842312E-2,-3.861469682E-3,1.065233024E-3,1.893693206E-2
9.743883470E-1,-1.850842312E-2,1.464695437E-3,0.000000000E0,1.856628824E-2
9.768994410E-1,-2.383458801E-2,2.529928461E-3,-2.130466048E-3,2.406298005E-2
9.794105860E-1,-2.276935615E-2,3.595161485E-3,-5.326164886E-3,2.365875732E-2
9.819217840E-1,-1.744319126E-2,2.529928461E-3,-3.195699072E-3,1.791306651E-2
9.844328780E-1,-2.170412242E-2,6.790860556E-3,-2.130466048E-3,2.284126973E-2
9.869440760E-1,-1.957365684E-2,7.856093347E-3,0.000000000E0,2.109137845E-2
9.894552220E-1,-1.850842312E-2,8.921326138E-3,0.000000000E0,2.054633268E-2
9.919663680E-1,-1.957365684E-2,7.856093347E-3,-2.130466048E-3,2.119870587E-2
9.944775140E-1,-1.850842312E-2,9.986559860E-3,-2.130466048E-3,2.113840083E-2
9.969762110E-1,-1.957365684E-2,6.790860556E-3,-1.065233024E-3,2.074556701E-2
9.994873570E-1,-1.637795754E-2,7.856093347E-3,2.130466048E-3,1.828919302E-2
1.001998503E0,-1.957365684E-2,1.105179265E-2,0.000000000E0,2.247821530E-2
1.004509649E0,-1.637795754E-2,9.986559860E-3,-1.065233024E-3,1.921206892E-2
1.007020795E0,-1.637795754E-2,8.921326138E-3,2.130466048E-3,1.877142612E-2
1.009531941E0,-1.637795754E-2,1.211702544E-2,3.195699072E-3,2.062213110E-2
1.012043086E0,-9.986559860E-3,7.856093347E-3,5.326164886E-3,1.377743129E-2
1.014554232E0,-1.424749196E-2,7.856093347E-3,3.195699072E-3,1.658076362E-2
1.017065378E0,-9.986559860E-3,6.790860556E-3,4.260932095E-3,1.280635418E-2
1.019576524E0,-9.986559860E-3,5.725627299E-3,0.000000000E0,1.151148061E-2
1.022087670E0,-5.725627299E-3,1.464695437E-3,0.000000000E0,5.910003443E-3
1.024598816E0,-3.595161485E-3,3.595161485E-3,1.065233024E-3,5.194717855E-3
1.027114961E0,-1.464695437E-3,-6.657706108E-4,3.195699072E-3,3.577859106E-3
1.029626107E0,-3.994623839E-4,-6.657706108E-4,-3.195699072E-3,3.288664358E-3
1.032137253E0,1.731003635E-3,3.994623839E-4,-1.065233024E-3,2.071392086E-3
1.034648399E0,2.796236658E-3,-3.861469682E-3,1.065233024E-3,4.885141651E-3
1.037159545E0,4.926702939E-3,-4.926702939E-3,-1.065233024E-3,7.048370386E-3
1.039670691E0,8.122402243E-3,-1.731003635E-3,0.000000000E0,8.304805343E-3
1.042181836E0,1.238333434E-2,3.994623839E-4,1.065233024E-3,1.243548394E-2
1.044692982E0,8.122402243E-3,-6.657706108E-4,-1.065233024E-3,8.218965270E-3
1.047204128E0,7.057168987E-3,-3.861469682E-3,-1.065233024E-3,8.114758383E-3
1.049715274E0,1.131810062E-2,-2.796236658E-3,1.065233024E-3,1.170696640E-2
1.052226420E0,1.131810062E-2,-8.122402243E-3,-1.065233024E-3,1.397166923E-2
1.054737618E0,1.131810062E-2,-5.991935730E-3,-1.065233024E-3,1.285058041E-2
1.057240378E0,1.131810062E-2,-8.122402243E-3,0.000000000E0,1.393100211E-2
1.059751524E0,1.344856713E-2,-9.187635034E-3,-2.130466048E-3,1.642606103E-2
1.062262670E0,1.344856713E-2,-1.025286783E-2,-4.260932095E-3,1.743963299E-2
1.064773816E0,1.344856713E-2,-8.122402243E-3,-2.130466048E-3,1.585484978E-2
1.067284961E0,1.557903271E-2,-1.025286783E-2,-5.326164886E-3,1.939576220E-2
1.069796107E0,1.344856713E-2,-1.131810062E-2,-4.260932095E-3,1.808642866E-2
1.072307253E0,1.025286783E-2,-9.187635034E-3,-4.260932095E-3,1.441143568E-2
1.074818399E0,1.025286783E-2,-7.057168987E-3,-4.260932095E-3,1.315600529E-2
1.077329545E0,8.122402243E-3,-7.057168987E-3,-4.260932095E-3,1.157292507E-2
1.079840691E0,3.861469682E-3,-4.926702939E-3,-4.260932095E-3,7.572244864E-3
1.082351836E0,4.926702939E-3,-7.057168987E-3,-2.130466048E-3,8.866505599E-3
1.084862982E0,1.731003635E-3,-3.861469682E-3,-2.130466048E-3,4.737742846E-3
1.087372826E0,-3.994623839E-4,-2.796236658E-3,1.065233024E-3,3.018812853E-3
1.089883972E0,-3.994623839E-4,3.994623839E-4,-3.195699072E-3,3.245247748E-3
1.092395118E0,-6.790860556E-3,5.725627299E-3,-6.391398143E-3,1.094296876E-2
1.094906264E0,-6.790860556E-3,2.529928461E-3,-2.130466048E-3,7.553489967E-3
1.097417409E0,-7.856093347E-3,7.856093347E-3,-2.130466048E-3,1.131261645E-2
1.099928555E0,-3.595161485E-3,9.986559860E-3,-3.195699072E-3,1.108463155E-2
1.102439701E0,-6.790860556E-3,1.105179265E-2,-1.065233024E-3,1.301509237E-2
1.104950847E0,-1.318225823E-2,7.856093347E-3,0.000000000E0,1.534568782E-2
1.107461993E0,-1.105179265E-2,1.318225823E-2,3.195699072E-3,1.749647237E-2
1.109973139E0,-9.986559860E-3,1.211702544E-2,1.065233024E-3,1.573811948E-2
1.112484284E0,-9.986559860E-3,9.986559860E-3,-3.195699072E-3,1.448016741E-2
1.114995430E0,-1.318225823E-2,9.986559860E-3,-2.130466048E-3,1.667459731E-2
1.117506836E0,-7.856093347E-3,1.105179265E-2,3.195699072E-3,1.393100198E-2
1.120017982E0,-7.856093347E-3,1.105179265E-2,6.391398143E-3,1.499034001E-2
1.122529128E0,-1.105179265E-2,9.986559860E-3,4.260932095E-3,1.549287065E-2
1.125040274E0,-1.105179265E-2,6.790860556E-3,7.456631400E-3,1.496192701E-2
1.127551420E0,-1.211702544E-2,4.660394508E-3,3.195699072E-3,1.336989436E-2
1.130062566E0,-1.318225823E-2,4.660394508E-3,2.130466048E-3,1.414319959E-2
1.132573711E0,-1.424749196E-2,1.464695437E-3,4.260932095E-3,1.494295493E-2
1.135084857E0,-1.211702544E-2,-2.796236658E-3,3.195699072E-3,1.283953806E-2
1.137596003E0,-1.424749196E-2,-5.991935730E-3,2.130466048E-3,1.560234618E-2
1.140107149E0,-7.856093347E-3,-6.657706108E-4,3.195699072E-3,8.507287802E-3
1.142618295E0,-9.986559860E-3,-1.731003635E-3,3.195699072E-3,1.062733475E-2
1.145129441E0,-1.105179265E-2,-1.131810062E-2,1.065233024E-3,1.585484922E-2
1.147655014E0,-9.986559860E-3,-1.131810062E-2,0.000000000E0,1.509406438E-2
1.150166159E0,-9.986559860E-3,-1.344856713E-2,1.065233024E-3,1.678481627E-2
1.152677305E0,-6.790860556E-3,-1.664426550E-2,3.195699072E-3,1.825814486E-2
1.155188451E0,-3.994623839E-4,-2.090519853E-2,2.130466048E-3,2.101727340E-2
1.157699597E0,-2.529928461E-3,-1.238333434E-2,0.000000000E0,1.263912605E-2
1.160210743E0,1.731003635E-3,-1.557903271E-2,1.065233024E-3,1.571105837E-2
1.162721889E0,2.796236658E-3,-1.451379992E-2,-1.065233024E-3,1.481904346E-2
1.165233034E0,1.731003635E-3,-7.057168987E-3,0.000000000E0,7.266361379E-3
1.167744180E0,4.926702939E-3,-7.057168987E-3,4.260932095E-3,9.603727312E-3
1.170255326E0,1.131810062E-2,-5.991935730E-3,3.195699072E-3,1.319906011E-2
1.172766472E0,1.238333434E-2,-5.991935730E-3,1.065233024E-3,1.379800654E-2
1.175277618E0,9.187635034E-3,-7.057168987E-3,0.000000000E0,1.158517465E-2
1.177788868E0,1.131810062E-2,-4.926702939E-3,-2.130466048E-3,1.252639968E-2
1.180300014E0,1.131810062E-2,-3.861469682E-3,0.000000000E0,1.195869348E-2
1.182811159E0,1.557903271E-2,-2.796236658E-3,2.130466048E-3,1.597072588E-2
1.185322305E0,1.770949923E-2,-6.657706108E-4,4.260932095E-3,1.822704462E-2
1.187833451E0,1.451379992E-2,-6.657706108E-4,2.130466048E-3,1.468443136E-2
1.190344597E0,1.557903271E-2,2.529928461E-3,1.065233024E-3,1.581902398E-2
1.192855743E0,1.557903271E-2,2.529928461E-3,2.130466048E-3,1.592625768E-2
1.195366889E0,1.664426550E-2,1.464695437E-3,0.000000000E0,1.670858782E-2
1.197878034E0,1.770949923E-2,8.921326138E-3,1.065233024E-3,1.985827647E-2
1.200389180E0,1.770949923E-2,9.986559860E-3,1.065233024E-3,2.035908795E-2
1.202900326E0,1.664426550E-2,6.790860556E-3,2.130466048E-3,1.810210614E-2
1.205411472E0,1.344856713E-2,9.986559860E-3,2.130466048E-3,1.688591784E-2
1.207922305E0,1.451379992E-2,1.105179265E-2,2.130466048E-3,1.836658364E-2
1.210433451E0,1.238333434E-2,5.725627299E-3,2.130466048E-3,1.380828240E-2
1.212944597E0,1.025286783E-2,7.856093347E-3,3.195699072E-3,1.330608860E-2
1.215455743E0,5.991935730E-3,5.725627299E-3,0.000000000E0,8.287707872E-3
1.217966889E0,1.025286783E-2,2.529928461E-3,-1.065233024E-3,1.061397937E-2
1.220478034E0,7.057168987E-3,2.529928461E-3,0.000000000E0,7.496944186E-3
1.222989180E0,4.926702939E-3,4.660394508E-3,0.000000000E0,6.781716510E-3
1.225500326E0,4.926702939E-3,3.994623839E-4,-1.065233024E-3,5.056351792E-3
1.228011472E0,2.796236658E-3,-6.657706108E-4,0.000000000E0,2.874402539E-3
1.230522618E0,-3.994623839E-4,-1.731003635E-3,0.000000000E0,1.776497616E-3
1.233033764E0,-3.595161485E-3,-2.796236658E-3,-4.260932095E-3,6.236959826E-3
1.235544909E0,-4.660394508E-3,-4.926702939E-3,-2.130466048E-3,7.108485380E-3
1.238055014E0,-4.660394508E-3,-7.057168987E-3,-3.195699072E-3,9.040763443E-3
1.240566159E0,-5.725627299E-3,-5.991935730E-3,-2.130466048E-3,8.557160005E-3
1.243077305E0,-6.790860556E-3,-9.187635034E-3,-4.260932095E-3,1.219360353E-2
1.245588451E0,-4.660394508E-3,-1.238333434E-2,-1.065233024E-3,1.327407126E-2
1.248099597E0,-5.725627299E-3,-9.187635034E-3,0.000000000E0,1.082568453E-2
1.250610743E0,-1.105179265E-2,-1.238333434E-2,-4.260932095E-3,1.713606234E-2
1.253121889E0,-8.921326138E-3,-1.238333434E-2,-1.065233024E-3,1.529940361E-2
1.255633034E0,-6.790860556E-3,-1.131810062E-2,-2.130466048E-3,1.336989432E-2
1.258144180E0,-1.105179265E-2,-1.025286783E-2,-2.130466048E-3,1.522505517E-2
1.260655326E0,-1.531272475E-2,-1.131810062E-2,-6.391398143E-3,2.008553985E-2
1.263166472E0,-8.921326138E-3,-7.057168987E-3,-2.130466048E-3,1.157292443E-2
1.265677618E0,-7.856093347E-3,-9.187635034E-3,-3.195699072E-3,1.250373275E-2
1.268190170E0,-9.986559860E-3,-1.238333434E-2,-2.130466048E-3,1.605045896E-2
1.270701316E0,-7.856093347E-3,-1.451379992E-2,-2.130466048E-3,1.664053714E-2
1.273212461E0,-5.725627299E-3,-1.131810062E-2,-2.130466048E-3,1.286161324E-2
1.275723607E0,-6.790860556E-3,-1.131810062E-2,-4.260932095E-3,1.386977761E-2
1.278234753E0,-7.856093347E-3,-1.557903271E-2,-4.260932095E-3,1.796051239E-2
1.280745899E0,-5.725627299E-3,-1.025286783E-2,-5.326164886E-3,1.289465544E-2
1.283257045E0,-5.725627299E-3,-1.344856713E-2,-7.456631400E-3,1.640878172E-2
1.285768191E0,-5.725627299E-3,-1.238333434E-2,-5.326164886E-3,1.464574374E-2
1.288279336E0,-3.595161485E-3,-5.991935730E-3,0.000000000E0,6.987737824E-3
1.290790482E0,-2.529928461E-3,-4.926702939E-3,-2.130466048E-3,5.933955295E-3
1.293301628E0,-5.725627299E-3,-7.057168987E-3,-3.195699072E-3,9.633220367E-3
1.295812774E0,-6.790860556E-3,3.994623839E-4,-2.130466048E-3,7.128410964E-3
1.298327722E0,-1.464695437E-3,3.595161485E-3,0.000000000E0,3.882076612E-3
1.300838868E0,6.657706108E-4,7.856093347E-3,-3.195699072E-3,8.507287802E-3
1.303350014E0,-2.529928461E-3,1.211702544E-2,0.000000000E0,1.237832152E-2
1.305861159E0,-1.464695437E-3,9.986559860E-3,0.000000000E0,1.009339936E-2
1.308372305E0,-1.464695437E-3,1.424749196E-2,-1.065233024E-3,1.436214055E-2
1.310883451E0,6.657706108E-4,1.957365684E-2,0.000000000E0,1.958497620E-2
1.313394597E0,1.731003635E-3,1.957365684E-2,6.391398143E-3,2.066335854E-2
1.315905743E0,6.657706108E-4,1.637795754E-2,7.456631400E-3,1.800783428E-2
1.318416889E0,-3.994623839E-4,1.744319126E-2,2.130466048E-3,1.757735410E-2
1.320928034E0,6.657706108E-4,1.957365684E-2,3.195699072E-3,1.984398612E-2
1.323439180E0,1.731003635E-3,2.170412242E-2,6.391398143E-3,2.269174462E-2
1.325950326E0,-1.464695437E-3,2.170412242E-2,4.260932095E-3,2.216686277E-2
1.328456211E0,-2.529928461E-3,1.957365684E-2,5.326164886E-3,2.044251972E-2
1.330967357E0,2.796236658E-3,1.850842312E-2,8.521864191E-3,2.056703273E-2
1.333478503E0,1.731003635E-3,1.531272475E-2,7.456631400E-3,1.711949954E-2
1.335989649E0,-3.595161485E-3,1.850842312E-2,9.587096982E-3,2.115181649E-2
1.338500795E0,-2.529928461E-3,1.850842312E-2,9.587096982E-3,2.099701629E-2
1.341011941E0,1.731003635E-3,1.424749196E-2,1.065232977E-2,1.787343085E-2
1.343523086E0,6.657706108E-4,1.318225823E-2,8.521864191E-3,1.571105827E-2
1.346034232E0,-3.994623839E-4,8.921326138E-3,8.521864191E-3,1.234389726E-2
1.348545378E0,-3.994623839E-4,6.790860556E-3,9.587096982E-3,1.175533010E-2
1.351056524E0,-1.464695437E-3,3.595161485E-3,7.456631400E-3,8.406656330E-3
1.353567670E0,-1.464695437E-3,3.595161485E-3,5.326164886E-3,6.590792913E-3
1.356078816E0,-6.790860556E-3,3.595161485E-3,7.456631400E-3,1.070711563E-2
1.358593816E0,-2.529928461E-3,3.994623839E-4,7.456631400E-3,7.884253931E-3
1.361104961E0,-6.790860556E-3,-1.731003635E-3,9.587096982E-3,1.187537743E-2
1.363616107E0,-3.595161485E-3,1.464695437E-3,5.326164886E-3,6.590792913E-3
1.366127253E0,-1.464695437E-3,-6.657706108E-4,2.130466048E-3,2.669731973E-3
1.368638399E0,-4.660394508E-3,-3.861469682E-3,2.130466048E-3,6.416315973E-3
1.371149545E0,-1.464695437E-3,3.994623839E-4,5.326164886E-3,5.538315206E-3
1.373660691E0,-5.725627299E-3,3.994623839E-4,3.195699072E-3,6.569236693E-3
1.376171836E0,-7.856093347E-3,-6.657706108E-4,3.195699072E-3,8.507287802E-3
1.378682982E0,-3.595161485E-3,1.464695437E-3,0.000000000E0,3.882076612E-3
1.381194128E0,-3.595161485E-3,3.994623839E-4,-5.326164886E-3,6.438384013E-3
1.383705274E0,-2.529928461E-3,1.464695437E-3,1.065233024E-3,3.111364995E-3
1.386216420E0,-3.595161485E-3,-6.657706108E-4,3.195699072E-3,4.856019889E-3
1.388733920E0,-8.921326138E-3,3.994623839E-4,-2.130466048E-3,9.180877727E-3
1.391245066E0,-5.725627299E-3,2.529928461E-3,-2.130466048E-3,6.612278848E-3
1.393756211E0,-2.529928461E-3,-3.861469682E-3,-4.260932095E-3,6.282278921E-3
1.396267357E0,-1.105179265E-2,-4.926702939E-3,-4.260932095E-3,1.282848646E-2
1.398778503E0,-1.105179265E-2,-8.122402243E-3,-5.326164886E-3,1.471338069E-2
1.401289649E0,-1.211702544E-2,-9.187635034E-3,-7.456631400E-3,1.693624205E-2
1.403800795E0,-1.424749196E-2,-1.025286783E-2,-8.521864191E-3,1.951241899E-2
1.406311941E0,-1.424749196E-2,-9.187635034E-3,-9.587096982E-3,1.947603895E-2
1.408823086E0,-1.211702544E-2,-8.122402243E-3,-9.587096982E-3,1.745589162E-2
1.411334232E0,-1.531272475E-2,-1.025286783E-2,-1.065232977E-2,2.128551074E-2
1.413845378E0,-1.424749196E-2,-5.991935730E-3,-7.456631400E-3,1.716087622E-2
1.416356524E0,-9.986559860E-3,-7.057168987E-3,-8.521864191E-3,1.490493815E-2
1.418858139E0,-8.921326138E-3,-7.057168987E-3,-7.456631400E-3,1.360128839E-2
1.421369284E0,-1.105179265E-2,-4.926702939E-3,-8.521864191E-3,1.479988824E-2
1.423880430E0,-1.211702544E-2,-5.991935730E-3,-7.456631400E-3,1.543784153E-2
1.426391576E0,-1.105179265E-2,-6.657706108E-4,-8.521864191E-3,1.397166921E-2
1.428902722E0,-1.424749196E-2,-2.796236658E-3,-1.065232977E-2,1.800783430E-2
1.431413868E0,-1.531272475E-2,-6.657706108E-4,-1.278279629E-2,1.995802271E-2
1.433925014E0,-1.424749196E-2,4.660394508E-3,-7.456631400E-3,1.674251044E-2
1.436436159E0,-1.424749196E-2,3.994623839E-4,-8.521864191E-3,1.660640739E-2
1.438947305E0,-1.424749196E-2,1.464695437E-3,-4.260932095E-3,1.494295493E-2
1.441458451E0,-1.318225823E-2,3.595161485E-3,-3.195699072E-3,1.403244850E-2
1.443969597E0,-1.637795754E-2,2.529928461E-3,-6.391398143E-3,1.776198191E-2
1.446480743E0,-1.211702544E-2,3.595161485E-3,-2.130466048E-3,1.281742475E-2
1.448991368E0,-1.531272475E-2,4.660394508E-3,0.000000000E0,1.600621180E-2
1.451502514E0,-1.744319126E-2,2.529928461E-3,-2.130466048E-3,1.775399518E-2
1.454013659E0,-1.531272475E-2,3.595161485E-3,-4.260932095E-3,1.629601999E-2
1.456524805E0,-1.318225823E-2,3.994623839E-4,-3.195699072E-3,1.356996665E-2
1.459035951E0,-8.921326138E-3,1.464695437E-3,1.065233024E-3,9.103302378E-3
1.461547097E0,-9.986559860E-3,3.994623839E-4,1.065233024E-3,1.005115264E-2
1.464058243E0,-1.105179265E-2,-6.657706108E-4,3.195699072E-3,1.152379555E-2
1.466569389E0,-1.211702544E-2,3.994623839E-4,1.065233024E-3,1.217031623E-2
1.469080534E0,-8.921326138E-3,1.464695437E-3,3.195699072E-3,9.588945997E-3
1.471591680E0,-3.595161485E-3,3.994623839E-4,4.260932095E-3,5.589302158E-3
1.474102826E0,-8.921326138E-3,-1.731003635E-3,0.000000000E0,9.087707832E-3
1.476613972E0,-8.921326138E-3,2.529928461E-3,4.260932095E-3,1.020520163E-2
1.479112253E0,-4.660394508E-3,6.790860556E-3,7.456631400E-3,1.111019423E-2
1.481623399E0,-1.464695437E-3,-6.657706108E-4,5.326164886E-3,5.563866967E-3
1.484134545E0,-3.595161485E-3,-6.657706108E-4,7.456631400E-3,8.304805141E-3
1.486645691E0,-1.464695437E-3,3.994623839E-4,3.195699072E-3,3.537993142E-3
1.489156836E0,5.991935730E-3,1.464695437E-3,3.195699072E-3,6.947022317E-3
1.491667982E0,2.796236658E-3,1.464695437E-3,1.065233024E-3,3.331515206E-3
1.494179128E0,5.991935730E-3,5.725627299E-3,1.065233024E-3,8.355885540E-3
1.496690274E0,5.991935730E-3,6.790860556E-3,-1.065233024E-3,9.118870669E-3
1.499201420E0,4.926702939E-3,8.921326138E-3,0.000000000E0,1.019129344E-2
1.501712566E0,3.861469682E-3,6.790860556E-3,1.065233024E-3,7.884253712E-3
1.504223711E0,7.057168987E-3,7.856093347E-3,0.000000000E0,1.056038999E-2
1.506734857E0,7.057168987E-3,6.790860556E-3,-1.065233024E-3,9.851606092E-3
1.509245170E0,9.187635034E-3,8.921326138E-3,0.000000000E0,1.280635380E-2
1.511756316E0,8.122402243E-3,7.856093347E-3,-1.065233024E-3,1.135016926E-2
1.514267461E0,7.057168987E-3,8.921326138E-3,-3.195699072E-3,1.181550620E-2
1.516778607E0,1.131810062E-2,8.921326138E-3,-2.130466048E-3,1.456805914E-2
1.519289753E0,5.991935730E-3,6.790860556E-3,-2.130466048E-3,9.303653393E-3
1.521800899E0,4.926702939E-3,5.725627299E-3,-3.195699072E-3,8.201688995E-3
1.524312045E0,5.991935730E-3,7.856093347E-3,-3.195699072E-3,1.038431457E-2
1.526823191E0,1.731003635E-3,1.105179265E-2,-3.195699072E-3,1.163404431E-2
1.529334336E0,7.057168987E-3,9.986559860E-3,-9.587096982E-3,1.553857910E-2
1.531845482E0,4.926702939E-3,1.211702544E-2,-7.456631400E-3,1.505642917E-2
1.534356628E0,6.657706108E-4,1.531272475E-2,-5.326164886E-3,1.622623869E-2
1.536867774E0,-3.595161485E-3,1.424749196E-2,-6.391398143E-3,1.602392534E-2
1.539379232E0,-3.595161485E-3,1.637795754E-2,-7.456631400E-3,1.835113160E-2
1.541890378E0,-1.464695437E-3,1.424749196E-2,-7.456631400E-3,1.614737476E-2
1.544401524E0,-6.790860556E-3,1.424749196E-2,-8.521864191E-3,1.793680527E-2
1.546912670E0,-5.725627299E-3,8.921326138E-3,-1.171756350E-2,1.580108105E-2
1.549423816E0,-2.529928461E-3,7.856093347E-3,-6.391398143E-3,1.043880793E-2
1.551934961E0,-2.529928461E-3,8.921326138E-3,-7.456631400E-3,1.189924157E-2
1.554446107E0,-4.660394508E-3,4.660394508E-3,-9.587096982E-3,1.163404412E-2
1.556957253E0,-6.790860556E-3,2.529928461E-3,-6.391398143E-3,9.662623626E-3
1.559468399E0,-8.921326138E-3,1.464695437E-3,-3.195699072E-3,9.588945997E-3
1.561979545E0,-3.595161485E-3,-6.657706108E-4,-5.326164886E-3,6.460376847E-3
1.564490691E0,-2.529928461E-3,3.994623839E-4,-5.326164886E-3,5.910003436E-3
1.567001836E0,-3.994623839E-4,-2.796236658E-3,-3.195699072E-3,4.265091113E-3
1.569519024E0,-1.464695437E-3,-3.861469682E-3,-5.326164886E-3,6.739756170E-3
1.572030170E0,-2.529928461E-3,-8.122402243E-3,-6.391398143E-3,1.064067321E-2
1.574541316E0,-3.595161485E-3,-1.131810062E-2,-4.260932095E-3,1.261666081E-2
1.577052514E0,-3.595161485E-3,-8.122402243E-3,-3.195699072E-3,9.439867417E-3
1.579563607E0,-3.994623839E-4,-3.861469682E-3,-3.195699072E-3,5.028221441E-3
1.582074753E0,4.926702939E-3,-5.991935730E-3,1.065233024E-3,7.830096873E-3
1.584585899E0,4.926702939E-3,-7.057168987E-3,-3.195699072E-3,9.180878417E-3
1.587097097E0,4.926702939E-3,-3.861469682E-3,1.065233024E-3,6.349651278E-3
1.589608191E0,9.187635034E-3,-8.122402243E-3,3.195699072E-3,1.267274825E-2
1.592119389E0,1.131810062E-2,-8.122402243E-3,4.260932095E-3,1.456805965E-2
1.594630482E0,1.025286783E-2,-9.187635034E-3,3.195699072E-3,1.413316768E-2
1.597141680E0,1.238333434E-2,-9.187635034E-3,4.260932095E-3,1.599734819E-2
1.599670795E0,9.187635034E-3,-9.187635034E-3,1.065233024E-3,1.303687065E-2
1.602181941E0,1.344856713E-2,-8.122402243E-3,2.130466048E-3,1.585484978E-2
1.604693086E0,1.344856713E-2,-7.057168987E-3,5.326164886E-3,1.609458370E-2
1.607204284E0,1.557903271E-2,-9.187635034E-3,3.195699072E-3,1.836658352E-2
1.609715378E0,1.770949923E-2,-9.187635034E-3,4.260932095E-3,2.040084662E-2
1.612226524E0,1.770949923E-2,-1.131810062E-2,4.260932095E-3,2.144484336E-2
1.614737722E0,1.770949923E-2,-8.122402243E-3,6.391398143E-3,2.050487140E-2
1.617248868E0,1.770949923E-2,-1.025286783E-2,6.391398143E-3,2.143822828E-2
1.619759961E0,1.770949923E-2,-1.770949923E-2,2.130466048E-3,2.513546521E-2
1.622271159E0,1.344856713E-2,-2.290250920E-2,1.065233024E-3,2.658051179E-2
1.624782253E0,1.238333434E-2,-2.396774292E-2,-1.065233024E-3,2.699878500E-2
1.627293451E0,1.238333434E-2,-2.290250920E-2,1.065233024E-3,2.605775543E-2
1.629796889E0,1.025286783E-2,-2.197043039E-2,-1.065233024E-3,2.426841222E-2
1.632308034E0,8.122402243E-3,-2.396774292E-2,-1.065233024E-3,2.532905131E-2
1.634819180E0,1.238333434E-2,-1.877473295E-2,0.000000000E0,2.249083295E-2
1.637330378E0,1.131810062E-2,-1.664426550E-2,1.065233024E-3,2.015603376E-2
1.639841472E0,2.796236658E-3,-1.451379992E-2,0.000000000E0,1.478070795E-2
1.642352670E0,6.657706108E-4,-9.187635034E-3,0.000000000E0,9.211725573E-3
1.644863816E0,2.796236658E-3,-9.187635034E-3,1.065233024E-3,9.662623783E-3
1.647374961E0,6.657706108E-4,-1.238333434E-2,1.065233024E-3,1.244688480E-2
1.649886055E0,-1.464695437E-3,-1.025286783E-2,-1.065233024E-3,1.041159703E-2
1.652397253E0,6.657706108E-4,-9.187635034E-3,-2.130466048E-3,9.454880941E-3
1.654908399E0,-7.856093347E-3,-8.122402243E-3,-4.260932095E-3,1.207671989E-2
1.657419545E0,-9.986559860E-3,-5.991935730E-3,-4.260932095E-3,1.240121824E-2
1.659926784E0,-9.986559860E-3,-3.861469682E-3,-4.260932095E-3,1.152379574E-2
1.662437930E0,-9.986559860E-3,-6.657706108E-4,-1.065233024E-3,1.006525458E-2
1.664949076E0,-1.318225823E-2,-6.657706108E-4,-1.065233024E-3,1.324197508E-2
1.667460274E0,-1.424749196E-2,3.994623839E-4,-2.130466048E-3,1.441143583E-2
1.669971368E0,-1.531272475E-2,3.994623839E-4,-3.195699072E-3,1.564773472E-2
1.672482514E0,-1.424749196E-2,-1.731003635E-3,-3.195699072E-3,1.470373739E-2
1.674993659E0,-1.318225823E-2,-4.926702939E-3,-4.260932095E-3,1.470373681E-2
1.677504805E0,-9.986559860E-3,-9.187635034E-3,-4.260932095E-3,1.422320490E-2
1.680016003E0,-1.211702544E-2,-1.131810062E-2,-3.195699072E-3,1.688591720E-2
1.682527097E0,-1.105179265E-2,-1.344856713E-2,2.130466048E-3,1.753695995E-2
1.685038295E0,-1.105179265E-2,-1.131810062E-2,-1.065233024E-3,1.585484922E-2
1.687549441E0,-7.856093347E-3,-1.770949923E-2,-3.195699072E-3,1.963560689E-2
1.690072826E0,-4.660394508E-3,-1.770949923E-2,-4.260932095E-3,1.880162711E-2
1.692583972E0,-5.725627299E-3,-1.664426550E-2,-1.065233024E-3,1.763374899E-2
1.695095118E0,-6.790860556E-3,-1.770949923E-2,0.000000000E0,1.896686980E-2
1.697606316E0,-2.529928461E-3,-1.770949923E-2,1.065233024E-3,1.792098274E-2
1.700117461E0,-2.529928461E-3,-1.557903271E-2,0.000000000E0,1.578311751E-2
1.702628607E0,-2.529928461E-3,-1.770949923E-2,2.130466048E-3,1.801570943E-2
1.705139753E0,-4.660394508E-3,-2.090519853E-2,-3.195699072E-3,2.165546340E-2
1.707650899E0,-1.464695437E-3,-1.557903271E-2,1.065233024E-3,1.568395085E-2
1.710162045E0,6.657706108E-4,-1.131810062E-2,2.130466048E-3,1.153609716E-2
1.712673191E0,-3.994623839E-4,-1.025286783E-2,-2.130466048E-3,1.047949209E-2
1.715184336E0,1.731003635E-3,-5.991935730E-3,-1.065233024E-3,6.327273407E-3
1.717695482E0,6.657706108E-4,-4.926702939E-3,0.000000000E0,4.971483919E-3
1.720204597E0,3.861469682E-3,-2.796236658E-3,1.065233024E-3,4.885141651E-3
1.722715743E0,3.861469682E-3,-4.926702939E-3,-1.065233024E-3,6.349651278E-3
1.725226889E0,2.796236658E-3,3.994623839E-4,-1.065233024E-3,3.018812853E-3
1.727738086E0,2.796236658E-3,3.994623839E-4,1.065233024E-3,3.018812853E-3
1.730249232E0,-3.994623839E-4,1.464695437E-3,2.130466048E-3,2.616063550E-3
1.732760326E0,-1.464695437E-3,3.595161485E-3,0.000000000E0,3.882076612E-3
1.735271472E0,-3.994623839E-4,2.529928461E-3,2.130466048E-3,3.331515240E-3
1.737782670E0,-3.994623839E-4,2.529928461E-3,2.130466048E-3,3.331515240E-3
1.740293816E0,-4.660394508E-3,3.595161485E-3,4.260932095E-3,7.266361221E-3
1.742804961E0,-5.725627299E-3,1.464695437E-3,5.326164886E-3,7.955889208E-3
1.745316107E0,-8.921326138E-3,-6.657706108E-4,2.130466048E-3,9.196314270E-3
1.747827253E0,-9.986559860E-3,-6.657706108E-4,1.065233024E-3,1.006525458E-2
1.750333347E0,-1.211702544E-2,2.529928461E-3,5.326164886E-3,1.347556589E-2
1.752844493E0,-9.986559860E-3,3.595161485E-3,1.065233024E-3,1.066729981E-2
1.755355639E0,-9.986559860E-3,1.464695437E-3,1.065233024E-3,1.014945476E-2
1.757866784E0,-1.531272475E-2,1.464695437E-3,2.130466048E-3,1.552944807E-2
1.760377930E0,-1.424749196E-2,1.464695437E-3,1.065233024E-3,1.436214055E-2
1.762889076E0,-1.211702544E-2,-6.657706108E-4,1.065233024E-3,1.218196525E-2
1.765400222E0,-1.637795754E-2,-6.657706108E-4,0.000000000E0,1.639148387E-2
1.767911420E0,-1.637795754E-2,3.994623839E-4,-1.065233024E-3,1.641742321E-2
1.770422566E0,-1.637795754E-2,-4.926702939E-3,-1.065233024E-3,1.713606187E-2
1.772933711E0,-1.211702544E-2,-5.991935730E-3,0.000000000E0,1.351760331E-2
1.775444857E0,-9.986559860E-3,-7.057168987E-3,-1.065233024E-3,1.227476001E-2
1.777956003E0,-1.318225823E-2,-1.131810062E-2,0.000000000E0,1.737444485E-2
1.780467878E0,-8.921326138E-3,-1.131810062E-2,0.000000000E0,1.441143510E-2
1.782979024E0,-7.856093347E-3,-1.025286783E-2,0.000000000E0,1.291663661E-2
1.785490170E0,-7.856093347E-3,-1.131810062E-2,3.195699072E-3,1.414319967E-2
1.788001316E0,-1.211702544E-2,-1.770949923E-2,3.195699072E-3,2.169472657E-2
1.790512461E0,-1.211702544E-2,-1.877473295E-2,-3.195699072E-3,2.257266921E-2
1.793023607E0,-8.921326138E-3,-1.557903271E-2,-3.195699072E-3,1.823482418E-2
1.795534753E0,-7.856093347E-3,-1.451379992E-2,-1.065233024E-3,1.653793555E-2
1.798045951E0,-8.921326138E-3,-1.238333434E-2,1.065233024E-3,1.529940361E-2
1.800557097E0,-4.660394508E-3,-1.025286783E-2,0.000000000E0,1.126235214E-2
1.803068243E0,-6.790860556E-3,-8.122402243E-3,-2.130466048E-3,1.079944864E-2
1.805579389E0,-8.921326138E-3,-1.025286783E-2,-3.195699072E-3,1.396151322E-2
1.808090534E0,-3.595161485E-3,-8.122402243E-3,-2.130466048E-3,9.134412399E-3
1.810601524E0,-1.464695437E-3,-5.991935730E-3,0.000000000E0,6.168356873E-3
1.813112670E0,-2.529928461E-3,-2.796236658E-3,-1.065233024E-3,3.918443423E-3
1.815623816E0,-2.529928461E-3,-6.657706108E-4,-2.130466048E-3,3.373821884E-3
1.818134961E0,6.657706108E-4,2.529928461E-3,-1.065233024E-3,2.824625624E-3
1.820646159E0,-3.994623839E-4,2.529928461E-3,-4.260932095E-3,4.971483736E-3
1.823157253E0,6.657706108E-4,3.595161485E-3,1.065233024E-3,3.808301196E-3
1.825668451E0,1.731003635E-3,7.856093347E-3,-3.195699072E-3,8.656042330E-3
1.828179597E0,2.796236658E-3,4.660394508E-3,-2.130466048E-3,5.837559593E-3
1.830690743E0,-3.994623839E-4,4.660394508E-3,-1.065233024E-3,4.797245935E-3
1.833201889E0,6.657706108E-4,3.595161485E-3,0.000000000E0,3.656287271E-3
1.835713034E0,6.657706108E-4,1.464695437E-3,-1.065233024E-3,1.929586646E-3
1.838224180E0,6.657706108E-4,2.529928461E-3,2.130466048E-3,3.373821884E-3
1.840742878E0,3.861469682E-3,3.595161485E-3,1.065233024E-3,5.382458138E-3
1.843254024E0,5.991935730E-3,-6.657706108E-4,0.000000000E0,6.028809526E-3
1.845765170E0,5.991935730E-3,-2.796236658E-3,3.195699072E-3,7.344026538E-3
1.848276316E0,5.991935730E-3,-6.657706108E-4,1.065233024E-3,6.122194516E-3
1.850787461E0,9.187635034E-3,-1.731003635E-3,0.000000000E0,9.349278641E-3
1.853298607E0,8.122402243E-3,-2.796236658E-3,0.000000000E0,8.590247823E-3
1.855809753E0,4.926702939E-3,-6.657706108E-4,4.260932095E-3,6.547609845E-3
1.858320951E0,5.991935730E-3,-1.731003635E-3,5.326164886E-3,8.201688837E-3
1.860832097E0,5.991935730E-3,2.529928461E-3,4.260932095E-3,7.775562625E-3
1.863343243E0,8.122402243E-3,4.660394508E-3,5.326164886E-3,1.077314845E-2
1.865854389E0,9.187635034E-3,1.464695437E-3,5.326164886E-3,1.072035460E-2
1.868365534E0,1.025286783E-2,3.994623839E-4,3.195699072E-3,1.074678377E-2
1.870853607E0,8.122402243E-3,-2.796236658E-3,5.326164886E-3,1.010744231E-2
1.873364753E0,5.991935730E-3,-3.861469682E-3,3.195699072E-3,7.811960987E-3
1.875875899E0,1.731003635E-3,-1.731003635E-3,5.326164886E-3,5.861806851E-3
1.878387045E0,3.861469682E-3,-2.796236658E-3,4.260932095E-3,6.394171555E-3
1.880898191E0,-3.994623839E-4,3.994623839E-4,2.130466048E-3,2.204093005E-3
1.883409336E0,6.657706108E-4,-1.731003635E-3,3.195699072E-3,3.694877081E-3
1.885920482E0,2.796236658E-3,-3.861469682E-3,6.391398143E-3,7.973697874E-3
1.888431680E0,6.657706108E-4,-2.796236658E-3,1.065233024E-3,3.065438199E-3
1.890942826E0,1.731003635E-3,-4.926702939E-3,0.000000000E0,5.221951305E-3
1.893453972E0,-3.994623839E-4,-7.057168987E-3,2.130466048E-3,7.382553073E-3
1.895965118E0,-3.994623839E-4,-4.926702939E-3,1.065233024E-3,5.056351792E-3
1.898476264E0,-2.529928461E-3,-5.991935730E-3,0.000000000E0,6.504139590E-3
1.900997774E0,-5.725627299E-3,-8.122402243E-3,1.065233024E-3,9.994545891E-3
1.903508920E0,-7.856093347E-3,-5.991935730E-3,-1.065233024E-3,9.937616307E-3
1.906020066E0,-7.856093347E-3,-4.926702939E-3,-1.065233024E-3,9.334094810E-3
1.908531211E0,-9.986559860E-3,-5.991935730E-3,-3.195699072E-3,1.207671993E-2
1.911042357E0,-9.986559860E-3,-3.861469682E-3,-4.260932095E-3,1.152379574E-2
1.913553503E0,-6.790860556E-3,-2.796236658E-3,-1.065233024E-3,7.420879189E-3
1.916064649E0,-8.921326138E-3,-2.796236658E-3,0.000000000E0,9.349278021E-3
1.918575847E0,-9.986559860E-3,-5.991935730E-3,-3.195699072E-3,1.207671993E-2
1.921086993E0,-7.856093347E-3,-3.861469682E-3,-5.326164886E-3,1.024681332E-2
1.923598139E0,-6.790860556E-3,-5.991935730E-3,-7.456631400E-3,1.173117354E-2
1.926109284E0,-5.725627299E-3,-4.926702939E-3,-4.260932095E-3,8.672413282E-3
1.928620430E0,-2.529928461E-3,-8.122402243E-3,-4.260932095E-3,9.514699078E-3
1.931132357E0,-4.660394508E-3,-5.991935730E-3,-4.260932095E-3,8.705062498E-3
1.933643503E0,-2.529928461E-3,-8.122402243E-3,-8.521864191E-3,1.204143370E-2
1.936154649E0,-1.464695437E-3,-7.057168987E-3,-7.456631400E-3,1.037064697E-2
1.938665847E0,-3.994623839E-4,-7.057168987E-3,-3.195699072E-3,7.757299585E-3
1.941176941E0,-3.994623839E-4,-2.796236658E-3,-2.130466048E-3,3.537993107E-3
1.943688086E0,5.991935730E-3,-3.861469682E-3,0.000000000E0,7.128410896E-3
1.946199232E0,3.861469682E-3,-5.991935730E-3,-3.195699072E-3,7.811960987E-3
1.948710430E0,9.187635034E-3,-6.657706108E-4,-4.260932095E-3,1.014945468E-2
1.951221576E0,1.238333434E-2,6.790860556E-3,-4.260932095E-3,1.475189136E-2
1.953732722E0,7.057168987E-3,6.790860556E-3,-3.195699072E-3,1.030203445E-2
1.956243868E0,5.991935730E-3,7.856093347E-3,-4.260932095E-3,1.075997392E-2
1.958755014E0,1.131810062E-2,1.105179265E-2,0.000000000E0,1.581902407E-2
1.961267670E0,9.187635034E-3,8.921326138E-3,0.000000000E0,1.280635380E-2
1.963778816E0,1.025286783E-2,1.318225823E-2,-3.195699072E-3,1.700310923E-2
1.966289961E0,9.187635034E-3,1.424749196E-2,3.195699072E-3,1.725155521E-2
1.968801107E0,1.025286783E-2,1.637795754E-2,1.065233024E-3,1.935183488E-2
1.971312253E0,1.238333434E-2,1.318225823E-2,-3.195699072E-3,1.836658362E-2
1.973823451E0,1.344856713E-2,1.744319126E-2,2.130466048E-3,2.212843792E-2
1.976334597E0,9.187635034E-3,1.424749196E-2,2.130466048E-3,1.708632641E-2
1.978845743E0,1.238333434E-2,1.211702544E-2,1.065233024E-3,1.735811039E-2
1.981356889E0,1.025286783E-2,1.424749196E-2,3.195699072E-3,1.784165963E-2
1.983868034E0,9.187635034E-3,1.531272475E-2,4.260932095E-3,1.835885941E-2
1.986379180E0,1.131810062E-2,1.424749196E-2,5.326164886E-3,1.895938978E-2
1.988890378E0,7.057168987E-3,1.211702544E-2,3.195699072E-3,1.438187861E-2
1.991400534E0,8.122402243E-3,1.424749196E-2,5.326164886E-3,1.724333140E-2
1.993911680E0,4.926702939E-3,1.318225823E-2,2.130466048E-3,1.423317321E-2
1.996422826E0,4.926702939E-3,1.211702544E-2,1.065233024E-3,1.312362103E-2
1.998934024E0,2.796236658E-3,8.921326138E-3,1.065233024E-3,9.409767314E-3
2.001445170E0,3.861469682E-3,7.856093347E-3,2.130466048E-3,9.009330517E-3
2.003956264E0,6.657706108E-4,2.529928461E-3,5.326164886E-3,5.933954914E-3
2.006467461E0,-3.994623839E-4,-1.731003635E-3,4.260932095E-3,4.616436515E-3
2.008978607E0,-2.529928461E-3,-2.796236658E-3,5.326164886E-3,6.525910654E-3
2.011489753E0,-3.595161485E-3,-3.861469682E-3,1.065233024E-3,5.382458138E-3
2.014000899E0,-6.790860556E-3,-5.991935730E-3,0.000000000E0,9.056438642E-3
2.016512045E0,-4.660394508E-3,-5.991935730E-3,1.065233024E-3,7.665330532E-3
2.019023191E0,-3.595161485E-3,-4.926702939E-3,-1.065233024E-3,6.191309179E-3
2.021534389E0,-7.856093347E-3,-5.991935730E-3,0.000000000E0,9.880359127E-3
2.024045534E0,-1.105179265E-2,-4.926702939E-3,-2.130466048E-3,1.228630979E-2
2.026556680E0,-1.105179265E-2,-4.926702939E-3,-3.195699072E-3,1.251507152E-2
2.029067826E0,-8.921326138E-3,-1.731003635E-3,-5.326164886E-3,1.053349259E-2
2.031579024E0,-7.856093347E-3,2.529928461E-3,-3.195699072E-3,8.850493390E-3
2.034090170E0,-8.921326138E-3,2.529928461E-3,-4.260932095E-3,1.020520163E-2
2.036601316E0,-9.986559860E-3,-2.796236658E-3,-1.065233024E-3,1.042521169E-2
2.039112461E0,-9.986559860E-3,-6.657706108E-4,-1.065233024E-3,1.006525458E-2
2.041623607E0,-9.986559860E-3,-1.731003635E-3,-6.391398143E-3,1.198239215E-2
2.044134753E0,-7.856093347E-3,-3.861469682E-3,-8.521864191E-3,1.221684575E-2
2.046645899E0,-6.790860556E-3,-1.731003635E-3,-3.195699072E-3,7.702249881E-3
2.049157045E0,-6.790860556E-3,-6.657706108E-4,-6.391398143E-3,9.349278465E-3
2.051667670E0,-1.211702544E-2,-5.991935730E-3,-4.260932095E-3,1.417325445E-2
2.054178816E0,-7.856093347E-3,-7.057168987E-3,-6.391398143E-3,1.234389756E-2
2.056689961E0,-8.921326138E-3,-4.926702939E-3,-6.391398143E-3,1.202964805E-2
2.059201159E0,-7.856093347E-3,-5.991935730E-3,-5.326164886E-3,1.122450573E-2
2.061712305E0,-6.790860556E-3,-8.122402243E-3,-8.521864191E-3,1.359085629E-2
2.064223451E0,-8.921326138E-3,-7.057168987E-3,-1.065232977E-2,1.558415297E-2
2.066734597E0,-9.986559860E-3,-7.057168987E-3,-4.260932095E-3,1.294953877E-2
2.069245743E0,-3.595161485E-3,-4.926702939E-3,-6.391398143E-3,8.834452907E-3
2.071756889E0,-5.725627299E-3,-9.187635034E-3,-8.521864191E-3,1.377743136E-2
2.074268034E0,-7.856093347E-3,-7.057168987E-3,-5.326164886E-3,1.182750477E-2
2.076779180E0,-4.660394508E-3,-3.861469682E-3,-3.195699072E-3,6.844173992E-3
2.079290326E0,-3.994623839E-4,-6.657706108E-4,-3.195699072E-3,3.288664358E-3
2.081793607E0,-1.464695437E-3,-2.796236658E-3,-5.326164886E-3,6.191308793E-3
2.084304753E0,-2.529928461E-3,4.660394508E-3,-2.130466048E-3,5.714779136E-3
2.086815899E0,-1.464695437E-3,4.660394508E-3,1.065233024E-3,4.999933109E-3
2.089327097E0,1.731003635E-3,6.790860556E-3,1.065233024E-3,7.088503514E-3
2.091838243E0,2.796236658E-3,8.921326138E-3,2.130466048E-3,9.588945984E-3
2.094349389E0,-2.529928461E-3,7.856093347E-3,0.000000000E0,8.253407823E-3
2.096860534E0,-3.994623839E-4,1.105179265E-2,1.065233024E-3,1.111019408E-2
2.099371680E0,1.731003635E-3,1.211702544E-2,5.326164886E-3,1.334865954E-2
2.101882774E0,6.657706108E-4,1.105179265E-2,3.195699072E-3,1.152379555E-2
2.104393972E0,3.861469682E-3,1.424749196E-2,2.130466048E-3,1.491445141E-2
2.106905118E0,4.926702939E-3,9.986559860E-3,5.326164886E-3,1.234389777E-2
2.109416264E0,3.861469682E-3,8.921326138E-3,6.391398143E-3,1.163404394E-2
2.111924076E0,3.861469682E-3,1.211702544E-2,8.521864191E-3,1.530867150E-2
2.114435222E0,-3.994623839E-4,1.424749196E-2,7.456631400E-3,1.608576853E-2
2.116946368E0,6.657706108E-4,1.531272475E-2,6.391398143E-3,1.660640719E-2
2.119457566E0,-3.994623839E-4,1.211702544E-2,8.521864191E-3,1.481904332E-2
2.121968659E0,6.657706108E-4,1.211702544E-2,6.391398143E-3,1.371552136E-2
2.124479857E0,-3.595161485E-3,1.744319126E-2,8.521864191E-3,1.974366422E-2
2.126991003E0,-7.856093347E-3,2.063889056E-2,7.456631400E-3,2.330843964E-2
2.129502149E0,-4.660394508E-3,2.063889056E-2,9.587096982E-3,2.322919519E-2
2.132013295E0,-7.856093347E-3,2.063889056E-2,1.384802908E-2,2.606626010E-2
2.134524441E0,-8.921326138E-3,2.596505545E-2,8.521864191E-3,2.874711001E-2
2.137035586E0,-8.921326138E-3,2.383458801E-2,7.456631400E-3,2.651940794E-2
2.139546732E0,-1.424749196E-2,2.489982173E-2,1.171756350E-2,3.098860183E-2
2.142116472E0,-1.744319126E-2,2.276935615E-2,8.521864191E-3,2.992207663E-2
2.144627618E0,-1.744319126E-2,2.383458801E-2,1.065233024E-3,2.955481734E-2
2.147138764E0,-2.063889056E-2,2.703028731E-2,3.195699072E-3,3.415864061E-2
2.149649909E0,-2.383458801E-2,2.383458801E-2,4.260932095E-3,3.397544280E-2
2.152161107E0,-2.489982173E-2,2.276935615E-2,5.326164886E-3,3.415864069E-2
2.154672201E0,-2.489982173E-2,1.850842312E-2,3.195699072E-3,3.118934660E-2
2.157183399E0,-2.596505545E-2,1.637795754E-2,2.130466048E-3,3.077272304E-2
2.159694493E0,-2.796236612E-2,1.105179265E-2,0.000000000E0,3.006719208E-2
2.162205639E0,-2.689713426E-2,7.856093347E-3,-2.130466048E-3,2.810183125E-2
2.164716784E0,-3.222329915E-2,4.660394508E-3,-2.130466048E-3,3.262819594E-2
2.167227982E0,-3.222329915E-2,7.856093347E-3,-3.195699072E-3,3.332073983E-2
2.169739128E0,-3.009283356E-2,7.856093347E-3,-3.195699072E-3,3.126514556E-2
2.172210482E0,-2.796236612E-2,8.921326138E-3,0.000000000E0,2.935104732E-2
2.174721628E0,-3.009283356E-2,6.790860556E-3,-3.195699072E-3,3.101462416E-2
2.177232774E0,-3.222329915E-2,7.856093347E-3,-6.391398143E-3,3.377734715E-2
2.179743972E0,-3.009283356E-2,1.424749196E-2,-6.391398143E-3,3.390309173E-2
2.182255118E0,-2.796236612E-2,1.637795754E-2,-6.391398143E-3,3.303000730E-2
2.184766264E0,-3.115806542E-2,1.744319126E-2,-1.065232977E-2,3.726341492E-2
2.187277357E0,-3.115806542E-2,2.170412242E-2,-9.587096982E-3,3.916384046E-2
2.189788555E0,-3.009283356E-2,2.063889056E-2,-1.065232977E-2,3.801334720E-2
2.192299701E0,-2.596505545E-2,1.637795754E-2,-1.065232977E-2,3.249451842E-2
2.194810847E0,-2.689713426E-2,1.850842312E-2,-1.278279629E-2,3.506304948E-2
2.197321993E0,-2.489982173E-2,1.850842312E-2,-1.171756350E-2,3.316419972E-2
2.199833139E0,-2.383458801E-2,1.744319126E-2,-1.384802908E-2,3.262085860E-2
2.202347878E0,-2.796236612E-2,1.637795754E-2,-9.587096982E-3,3.379413915E-2
2.204859024E0,-2.596505545E-2,1.744319126E-2,-1.171756350E-2,3.340284898E-2
2.207370170E0,-2.276935615E-2,1.957365684E-2,-1.171756350E-2,3.223155156E-2
2.209881368E0,-2.063889056E-2,1.637795754E-2,-1.171756350E-2,2.883578664E-2
2.212392461E0,-2.170412242E-2,1.424749196E-2,-1.491326280E-2,2.994103145E-2
2.214903607E0,-2.063889056E-2,1.531272475E-2,-1.384802908E-2,2.919265751E-2
2.217414753E0,-2.063889056E-2,1.744319126E-2,-1.278279629E-2,2.989362149E-2
2.219925951E0,-1.531272475E-2,1.424749196E-2,-1.171756350E-2,2.397440011E-2
2.222437097E0,-1.424749196E-2,1.105179265E-2,-1.171756350E-2,2.150428892E-2
2.224948243E0,-1.744319126E-2,1.637795754E-2,-1.171756350E-2,2.664214159E-2
2.227459389E0,-1.637795754E-2,1.531272475E-2,-1.065232977E-2,2.482315777E-2
2.229970534E0,-1.531272475E-2,1.637795754E-2,-7.456631400E-3,2.362876180E-2
2.232467357E0,-1.318225823E-2,1.850842312E-2,-9.587096982E-3,2.466264558E-2
2.234978503E0,-1.531272475E-2,1.637795754E-2,-7.456631400E-3,2.362876180E-2
2.237489649E0,-1.531272475E-2,1.850842312E-2,-9.587096982E-3,2.586413915E-2
2.240000847E0,-1.637795754E-2,2.383458801E-2,-7.456631400E-3,2.986513737E-2
2.242511941E0,-1.424749196E-2,2.596505545E-2,-7.456631400E-3,3.054138968E-2
2.245023139E0,-1.211702544E-2,2.703028731E-2,-9.587096982E-3,3.113472605E-2
2.247534232E0,-1.318225823E-2,2.596505545E-2,-8.521864191E-3,3.034103172E-2
2.250045430E0,-1.105179265E-2,2.596505545E-2,-6.391398143E-3,2.893399723E-2
2.252556576E0,-1.318225823E-2,2.489982173E-2,-5.326164886E-3,2.867300275E-2
2.255067722E0,-9.986559860E-3,2.170412242E-2,-5.326164886E-3,2.447791536E-2
2.257578868E0,-9.986559860E-3,1.850842312E-2,-5.326164886E-3,2.169472601E-2
2.260090014E0,-8.921326138E-3,1.637795754E-2,-2.130466048E-3,1.877142612E-2
2.262589493E0,-3.595161485E-3,1.424749196E-2,-2.130466048E-3,1.484773042E-2
2.265100639E0,-4.660394508E-3,1.211702544E-2,0.000000000E0,1.298235659E-2
2.267611784E0,-5.725627299E-3,1.211702544E-2,0.000000000E0,1.340168324E-2
2.270122982E0,-3.595161485E-3,9.986559860E-3,-3.195699072E-3,1.108463155E-2
2.272634128E0,1.731003635E-3,9.986559860E-3,-1.065233024E-3,1.019129397E-2
2.275145222E0,3.861469682E-3,1.105179265E-2,0.000000000E0,1.170696668E-2
2.277656368E0,3.861469682E-3,9.986559860E-3,-2.130466048E-3,1.091701477E-2
2.280167566E0,7.057168987E-3,7.856093347E-3,-4.260932095E-3,1.138759760E-2
2.282678711E0,8.122402243E-3,9.986559860E-3,-2.130466048E-3,1.304774623E-2
2.285189857E0,5.991935730E-3,7.856093347E-3,0.000000000E0,9.880359127E-3
2.287701003E0,7.057168987E-3,9.986559860E-3,0.000000000E0,1.222845092E-2
2.290212149E0,1.131810062E-2,1.531272475E-2,0.000000000E0,1.904150574E-2
2.292743711E0,9.187635034E-3,1.531272475E-2,0.000000000E0,1.785755237E-2
2.295254857E0,1.131810062E-2,1.531272475E-2,0.000000000E0,1.904150574E-2
2.297766003E0,1.025286783E-2,1.637795754E-2,0.000000000E0,1.932249445E-2
2.300277149E0,1.238333434E-2,1.637795754E-2,1.065233024E-3,2.056013579E-2
2.302788295E0,1.025286783E-2,1.637795754E-2,5.326164886E-3,2.004312411E-2
2.305299441E0,1.131810062E-2,1.957365684E-2,2.130466048E-3,2.271048941E-2
2.307810586E0,1.025286783E-2,1.957365684E-2,-2.130466048E-3,2.219883390E-2
2.310321784E0,1.131810062E-2,1.531272475E-2,-2.130466048E-3,1.916031906E-2
2.312832930E0,1.131810062E-2,1.531272475E-2,1.065233024E-3,1.907127846E-2
2.315344076E0,1.025286783E-2,1.531272475E-2,2.130466048E-3,1.855100330E-2
2.317855222E0,1.025286783E-2,1.105179265E-2,1.065233024E-3,1.511284688E-2
2.320366368E0,7.057168987E-3,5.725627299E-3,4.260932095E-3,1.003703066E-2
2.322870639E0,1.025286783E-2,3.595161485E-3,1.065233024E-3,1.091701452E-2
2.325381784E0,5.991935730E-3,-3.861469682E-3,0.000000000E0,7.128410896E-3
2.327892930E0,8.122402243E-3,-7.057168987E-3,1.065233024E-3,1.081257480E-2
2.330404128E0,1.025286783E-2,-9.187635034E-3,0.000000000E0,1.376713246E-2
2.332915222E0,3.861469682E-3,-1.238333434E-2,-3.195699072E-3,1.335928179E-2
2.335426368E0,6.657706108E-4,-1.451379992E-2,0.000000000E0,1.452906186E-2
2.337937514E0,4.926702939E-3,-1.238333434E-2,-1.065233024E-3,1.336989501E-2
2.340448711E0,4.926702939E-3,-1.770949923E-2,-4.260932095E-3,1.886940134E-2
2.342959857E0,7.057168987E-3,-1.557903271E-2,-2.130466048E-3,1.723510313E-2
2.345471003E0,7.057168987E-3,-1.983996481E-2,1.065233024E-3,2.108465222E-2
2.347982149E0,7.057168987E-3,-1.877473295E-2,-1.065233024E-3,2.008554089E-2
2.350493295E0,3.861469682E-3,-1.983996481E-2,-5.326164886E-3,2.090222916E-2
2.353005743E0,5.991935730E-3,-1.770949923E-2,-3.195699072E-3,1.896686978E-2
2.355516889E0,7.057168987E-3,-1.983996481E-2,-1.065233024E-3,2.108465222E-2
2.358028034E0,5.991935730E-3,-2.090519853E-2,-3.195699072E-3,2.198051664E-2
2.360539232E0,9.187635034E-3,-1.877473295E-2,-5.326164886E-3,2.157014759E-2
2.363050326E0,5.991935730E-3,-1.983996481E-2,-4.260932095E-3,2.115852168E-2
2.365561524E0,3.861469682E-3,-2.290250920E-2,-6.391398143E-3,2.408912298E-2
2.368072670E0,4.926702939E-3,-1.983996481E-2,-4.260932095E-3,2.088186169E-2
2.370583816E0,5.991935730E-3,-1.877473295E-2,-2.130466048E-3,1.982253204E-2
2.373094961E0,1.131810062E-2,-1.664426550E-2,-2.130466048E-3,2.024030289E-2
2.375606107E0,1.451379992E-2,-1.770949923E-2,-4.260932095E-3,2.329017590E-2
2.378117253E0,8.122402243E-3,-1.557903271E-2,-3.195699072E-3,1.785755221E-2
2.380628399E0,1.025286783E-2,-1.877473295E-2,-1.065233024E-3,2.141837102E-2
2.383137097E0,1.131810062E-2,-1.877473295E-2,-1.065233024E-3,2.194822818E-2
2.385648243E0,1.451379992E-2,-1.770949923E-2,-1.065233024E-3,2.292185578E-2
2.388159389E0,1.025286783E-2,-2.090519853E-2,0.000000000E0,2.328408521E-2
2.390670586E0,1.238333434E-2,-2.396774292E-2,-2.130466048E-3,2.706175448E-2
2.393181680E0,9.187635034E-3,-1.983996481E-2,0.000000000E0,2.186405363E-2
2.395692826E0,7.057168987E-3,-2.290250920E-2,-2.130466048E-3,2.405966432E-2
2.398203972E0,1.238333434E-2,-2.090519853E-2,-4.260932095E-3,2.466839754E-2
2.400715170E0,7.057168987E-3,-1.983996481E-2,-2.130466048E-3,2.116522438E-2
2.403226316E0,1.131810062E-2,-1.770949923E-2,-2.130466048E-3,2.112497692E-2
2.405737461E0,1.025286783E-2,-2.090519853E-2,-4.260932095E-3,2.367074495E-2
2.408248607E0,1.025286783E-2,-2.197043039E-2,-3.195699072E-3,2.445472557E-2
2.410759753E0,1.025286783E-2,-1.877473295E-2,0.000000000E0,2.139186518E-2
2.413272097E0,1.238333434E-2,-1.983996481E-2,3.195699072E-3,2.360473820E-2
2.415783243E0,1.238333434E-2,-1.983996481E-2,0.000000000E0,2.338741484E-2
2.418294389E0,1.238333434E-2,-2.290250920E-2,-2.130466048E-3,2.612299337E-2
2.420805534E0,9.187635034E-3,-2.290250920E-2,0.000000000E0,2.467666033E-2
2.423316680E0,1.025286783E-2,-2.090519853E-2,1.065233024E-3,2.330843936E-2
2.425827878E0,1.025286783E-2,-1.770949923E-2,-1.065233024E-3,2.049103177E-2
2.428338972E0,1.025286783E-2,-2.290250920E-2,0.000000000E0,2.509275246E-2
2.430850170E0,9.187635034E-3,-2.290250920E-2,-1.065233024E-3,2.469964142E-2
2.433361316E0,7.057168987E-3,-1.770949923E-2,2.130466048E-3,1.918251502E-2
2.435872461E0,7.057168987E-3,-2.609820850E-2,-1.065233024E-3,2.705651202E-2
2.438383607E0,1.131810062E-2,-2.609820850E-2,0.000000000E0,2.844672017E-2
2.440894753E0,9.187635034E-3,-2.609820850E-2,-1.065233024E-3,2.768869527E-2
2.443404284E0,5.991935730E-3,-2.396774292E-2,-3.195699072E-3,2.491121207E-2
2.445915430E0,7.057168987E-3,-2.290250920E-2,0.000000000E0,2.396515307E-2
2.448426576E0,9.187635034E-3,-2.503297664E-2,0.000000000E0,2.666575626E-2
2.450937722E0,8.122402243E-3,-2.609820850E-2,-1.065233024E-3,2.735369494E-2
2.453448868E0,8.122402243E-3,-2.503297664E-2,1.065233024E-3,2.633928737E-2
2.455960014E0,4.926702939E-3,-2.197043039E-2,2.130466048E-3,2.261661113E-2
2.458471159E0,2.796236658E-3,-2.090519853E-2,1.065233024E-3,2.111826192E-2
2.460982357E0,1.731003635E-3,-2.090519853E-2,0.000000000E0,2.097674186E-2
2.463493503E0,-3.994623839E-4,-1.770949923E-2,1.065233024E-3,1.774600390E-2
2.466004649E0,-2.529928461E-3,-1.344856713E-2,1.065233024E-3,1.372585944E-2
2.468515795E0,-2.529928461E-3,-1.451379992E-2,-1.065233024E-3,1.477110854E-2
2.471026941E0,-2.529928461E-3,-1.664426550E-2,-1.065233024E-3,1.686910885E-2
2.473526159E0,-6.790860556E-3,-1.664426550E-2,1.065233024E-3,1.800783392E-2
2.476037305E0,-9.986559860E-3,-1.664426550E-2,1.065233024E-3,1.943959036E-2
2.478548451E0,-5.725627299E-3,-1.557903271E-2,1.065233024E-3,1.663201099E-2
2.481059649E0,-3.595161485E-3,-1.664426550E-2,4.260932095E-3,1.755312800E-2
2.483570795E0,-8.921326138E-3,-1.770949923E-2,3.195699072E-3,2.008553996E-2
2.486081941E0,-1.105179265E-2,-1.557903271E-2,1.065233024E-3,1.913068484E-2
2.488593086E0,-9.986559860E-3,-1.131810062E-2,5.326164886E-3,1.600621166E-2
2.491104232E0,-1.318225823E-2,-1.664426550E-2,4.260932095E-3,2.165546233E-2
2.493615378E0,-1.105179265E-2,-1.664426550E-2,2.130466048E-3,2.009260014E-2
2.496126524E0,-7.856093347E-3,-1.557903271E-2,4.260932095E-3,1.796051239E-2
2.498637670E0,-1.211702544E-2,-1.557903271E-2,3.195699072E-3,1.999352541E-2
2.501148816E0,-1.211702544E-2,-1.557903271E-2,4.260932095E-3,2.019118887E-2
2.503667461E0,-6.790860556E-3,-1.344856713E-2,2.130466048E-3,1.521573628E-2
2.506178607E0,-9.986559860E-3,-1.238333434E-2,1.065233024E-3,1.594406061E-2
2.508689753E0,-1.105179265E-2,-1.344856713E-2,1.065233024E-3,1.743963302E-2
2.511200951E0,-6.790860556E-3,-5.991935730E-3,-1.065233024E-3,9.118870669E-3
2.513712097E0,-5.725627299E-3,-2.796236658E-3,4.260932095E-3,7.665330374E-3
2.516223243E0,-5.725627299E-3,-6.657706108E-4,1.065233024E-3,5.861806878E-3
2.518734389E0,-3.595161485E-3,1.464695437E-3,-1.065233024E-3,4.025573278E-3
2.521245534E0,2.796236658E-3,4.660394508E-3,1.065233024E-3,5.538315432E-3
2.523756680E0,6.657706108E-4,6.790860556E-3,-1.065233024E-3,6.906066825E-3
2.526267826E0,5.991935730E-3,2.529928461E-3,-1.065233024E-3,6.590793063E-3
2.528778972E0,3.861469682E-3,-4.926702939E-3,-2.130466048E-3,6.612279148E-3
2.531290118E0,5.991935730E-3,-9.187635034E-3,-7.456631400E-3,1.326338129E-2
2.533795951E0,9.187635034E-3,-7.057168987E-3,-3.195699072E-3,1.201785190E-2
2.536307097E0,1.025286783E-2,-1.238333434E-2,2.130466048E-3,1.621749529E-2
2.538818243E0,1.557903271E-2,-1.131810062E-2,0.000000000E0,1.925631485E-2
2.541329441E0,1.238333434E-2,-8.122402243E-3,-2.130466048E-3,1.496192745E-2
2.543840586E0,1.131810062E-2,-1.131810062E-2,-2.130466048E-3,1.614737405E-2
2.546351732E0,1.025286783E-2,-1.238333434E-2,-3.195699072E-3,1.639148439E-2
2.548862878E0,1.131810062E-2,-9.187635034E-3,-4.260932095E-3,1.518774445E-2
2.551374024E0,1.557903271E-2,-8.122402243E-3,-1.065233024E-3,1.760154538E-2
2.553885170E0,1.025286783E-2,-5.991935730E-3,-2.130466048E-3,1.206496904E-2
2.556396316E0,8.122402243E-3,-8.122402243E-3,-2.130466048E-3,1.168271039E-2
2.558907461E0,9.187635034E-3,-9.187635034E-3,-2.130466048E-3,1.316678247E-2
2.561418607E0,1.025286783E-2,-5.991935730E-3,-3.195699072E-3,1.229784880E-2
2.563928243E0,1.131810062E-2,-4.926702939E-3,-5.326164886E-3,1.344395164E-2
2.566439389E0,5.991935730E-3,-4.926702939E-3,-1.065233024E-3,7.830096873E-3
2.568950534E0,1.731003635E-3,-9.187635034E-3,2.130466048E-3,9.588946589E-3
2.571461732E0,6.657706108E-4,-1.131810062E-2,-4.260932095E-3,1.211190300E-2
2.573972878E0,8.122402243E-3,-8.122402243E-3,-2.130466048E-3,1.168271039E-2
2.576484024E0,7.057168987E-3,-8.122402243E-3,0.000000000E0,1.075997455E-2
2.578995170E0,2.796236658E-3,-1.131810062E-2,-1.065233024E-3,1.170696640E-2
2.581506316E0,1.731003635E-3,-1.238333434E-2,-3.195699072E-3,1.290565130E-2
2.584017461E0,5.991935730E-3,-1.451379992E-2,-1.065233024E-3,1.573811943E-2
2.586528607E0,-3.994623839E-4,-1.557903271E-2,4.260932095E-3,1.615615588E-2
2.589039753E0,3.861469682E-3,-1.344856713E-2,3.195699072E-3,1.435226109E-2
2.591550899E0,1.731003635E-3,-1.664426550E-2,4.260932095E-3,1.726799033E-2
2.594059805E0,-3.994623839E-4,-1.344856713E-2,-1.065233024E-3,1.349660140E-2
2.596570951E0,-3.595161485E-3,-1.344856713E-2,1.065233024E-3,1.396151372E-2
2.599082097E0,-4.660394508E-3,-1.131810062E-2,2.130466048E-3,1.242407196E-2
2.601593191E0,-3.595161485E-3,-9.187635034E-3,1.065233024E-3,9.923333362E-3
2.604104389E0,-3.595161485E-3,-1.238333434E-2,0.000000000E0,1.289465608E-2
2.606615534E0,-3.595161485E-3,-8.122402243E-3,0.000000000E0,8.882488632E-3
2.609126628E0,-5.725627299E-3,-3.861469682E-3,1.065233024E-3,6.987737651E-3
2.611637826E0,-7.856093347E-3,-2.796236658E-3,3.195699072E-3,8.930265096E-3
2.614148972E0,-2.529928461E-3,-6.657706108E-4,2.130466048E-3,3.373821884E-3
2.616660118E0,-5.725627299E-3,1.464695437E-3,0.000000000E0,5.910003443E-3
2.619171264E0,-5.725627299E-3,4.660394508E-3,1.065233024E-3,7.459008402E-3
2.621682357E0,-9.986559860E-3,5.725627299E-3,3.195699072E-3,1.194682713E-2
2.624192670E0,-9.986559860E-3,6.790860556E-3,-1.065233024E-3,1.212360863E-2
2.626703816E0,-5.725627299E-3,8.921326138E-3,0.000000000E0,1.060060697E-2
2.629214961E0,-7.856093347E-3,5.725627299E-3,2.130466048E-3,9.951879030E-3
2.631726107E0,-6.790860556E-3,7.856093347E-3,-3.195699072E-3,1.086491980E-2
2.634237253E0,-1.318225823E-2,6.790860556E-3,-1.065233024E-3,1.486682349E-2
2.636748399E0,-1.211702544E-2,5.725627299E-3,-2.130466048E-3,1.356996681E-2
2.639259545E0,-8.921326138E-3,6.790860556E-3,-2.130466048E-3,1.141248145E-2
2.641770639E0,-6.790860556E-3,8.921326138E-3,-1.065233024E-3,1.126235182E-2
2.644281836E0,-1.211702544E-2,7.856093347E-3,-2.130466048E-3,1.459723925E-2
2.646792982E0,-9.986559860E-3,5.725627299E-3,-8.521864191E-3,1.432258200E-2
2.649304128E0,-6.790860556E-3,-6.657706108E-4,-5.326164886E-3,8.656042398E-3
2.651815222E0,-4.660394508E-3,2.529928461E-3,-5.326164886E-3,7.515839766E-3
2.654324857E0,-9.986559860E-3,-3.861469682E-3,-8.521864191E-3,1.368446182E-2
2.656835951E0,-1.211702544E-2,-2.796236658E-3,-5.326164886E-3,1.352809216E-2
2.659347097E0,-3.595161485E-3,-4.926702939E-3,-5.326164886E-3,8.097260052E-3
2.661873659E0,-3.595161485E-3,-8.122402243E-3,-6.391398143E-3,1.094296918E-2
2.664384805E0,-6.790860556E-3,3.994623839E-4,-3.195699072E-3,7.515839929E-3
2.666895951E0,-6.790860556E-3,-3.861469682E-3,-4.260932095E-3,8.898442421E-3
2.669407045E0,-6.790860556E-3,-7.057168987E-3,-5.326164886E-3,1.114842830E-2
2.671918139E0,-1.464695437E-3,-8.122402243E-3,-6.391398143E-3,1.043880842E-2
2.674429284E0,-2.529928461E-3,-7.057168987E-3,-2.130466048E-3,7.793783273E-3
2.676940430E0,6.657706108E-4,-5.991935730E-3,-3.195699072E-3,6.823418268E-3
2.679451576E0,1.731003635E-3,-4.926702939E-3,-6.391398143E-3,8.253408124E-3
2.681962722E0,3.861469682E-3,-7.057168987E-3,-4.260932095E-3,9.103302946E-3
2.684473868E0,5.991935730E-3,-1.731003635E-3,-3.195699072E-3,7.008006844E-3
2.686985014E0,2.796236658E-3,-1.731003635E-3,-1.065233024E-3,3.456882183E-3
2.689496159E0,2.796236658E-3,-7.057168987E-3,-2.130466048E-3,7.884253873E-3
2.692007305E0,4.926702939E-3,-9.187635034E-3,-5.326164886E-3,1.170696680E-2
2.694518399E0,8.122402243E-3,-1.025286783E-2,-2.130466048E-3,1.325268284E-2
2.697029545E0,8.122402243E-3,-1.025286783E-2,-3.195699072E-3,1.346503655E-2
2.699545066E0,9.187635034E-3,-1.238333434E-2,-3.195699072E-3,1.574712988E-2
2.702056211E0,9.187635034E-3,-1.664426550E-2,0.000000000E0,1.901168619E-2
2.704567357E0,1.238333434E-2,-9.187635034E-3,-3.195699072E-3,1.574712988E-2
2.707078503E0,1.131810062E-2,-1.344856713E-2,-1.065233024E-3,1.760960195E-2
2.709589649E0,8.122402243E-3,-1.770949923E-2,0.000000000E0,1.948332058E-2
2.712100795E0,8.122402243E-3,-1.664426550E-2,-2.130466048E-3,1.864252874E-2
2.714611941E0,1.344856713E-2,-1.451379992E-2,1.065233024E-3,1.981537452E-2
2.717123034E0,5.991935730E-3,-1.238333434E-2,2.130466048E-3,1.392081710E-2
2.719634232E0,9.187635034E-3,-1.025286783E-2,1.065233024E-3,1.380828221E-2
2.722145326E0,1.131810062E-2,-7.057168987E-3,7.456631400E-3,1.528085035E-2
2.724656524E0,7.057168987E-3,-5.991935730E-3,5.326164886E-3,1.068058801E-2
2.727167618E0,3.861469682E-3,-6.657706108E-4,2.130466048E-3,4.460166386E-3
2.729674545E0,2.796236658E-3,-3.861469682E-3,-2.130466048E-3,5.221951085E-3
2.732185691E0,-3.994623839E-4,-4.926702939E-3,2.130466048E-3,5.382458325E-3
2.734696836E0,-3.595161485E-3,-5.991935730E-3,1.065233024E-3,7.068465271E-3
2.737207982E0,-2.529928461E-3,-3.861469682E-3,2.130466048E-3,5.084326082E-3
2.739719128E0,-3.994623839E-4,-4.926702939E-3,4.260932095E-3,6.525910999E-3
2.742230274E0,1.731003635E-3,-7.057168987E-3,6.391398143E-3,9.677291869E-3
2.744741420E0,-3.595161485E-3,3.595161485E-3,6.391398143E-3,8.167027759E-3
2.747252514E0,-4.660394508E-3,5.725627299E-3,0.000000000E0,7.382552739E-3
2.749763711E0,-5.725627299E-3,-4.926702939E-3,-1.065233024E-3,7.628232509E-3
2.752274805E0,-4.660394508E-3,-5.991935730E-3,-1.065233024E-3,7.665330532E-3
2.754786003E0,-5.725627299E-3,-1.731003635E-3,1.065233024E-3,6.075681275E-3
2.757297097E0,-6.790860556E-3,2.529928461E-3,2.130466048E-3,7.553489967E-3
2.759807930E0,-3.595161485E-3,3.595161485E-3,2.130466048E-3,5.512645262E-3
2.762319076E0,-3.595161485E-3,2.529928461E-3,-4.260932095E-3,6.122194577E-3
2.764830222E0,-6.790860556E-3,8.921326138E-3,-4.260932095E-3,1.199422317E-2
2.767341368E0,-9.986559860E-3,7.856093347E-3,-1.065233024E-3,1.275085495E-2
2.769852514E0,-1.424749196E-2,2.529928461E-3,-3.195699072E-3,1.481904375E-2
2.772363659E0,-1.318225823E-2,3.595161485E-3,1.065233024E-3,1.370517565E-2
2.774874753E0,-1.211702544E-2,2.529928461E-3,-2.130466048E-3,1.256032361E-2
2.777385951E0,-8.921326138E-3,3.595161485E-3,-6.391398143E-3,1.154838588E-2
2.779897045E0,-1.105179265E-2,5.725627299E-3,-4.260932095E-3,1.315600513E-2
2.782408243E0,-1.211702544E-2,4.660394508E-3,-6.391398143E-3,1.447036809E-2
2.784919389E0,-1.105179265E-2,9.986559860E-3,-5.326164886E-3,1.581902434E-2
2.787430534E0,-1.105179265E-2,1.105179265E-2,-9.587096982E-3,1.833566661E-2
2.789940899E0,-1.105179265E-2,6.790860556E-3,-1.065232977E-2,1.678481568E-2
2.792452045E0,-1.318225823E-2,5.725627299E-3,-8.521864191E-3,1.670858789E-2
2.794963191E0,-1.211702544E-2,2.529928461E-3,-1.171756350E-2,1.704476864E-2
2.797474336E0,-1.105179265E-2,3.595161485E-3,-8.521864191E-3,1.441143560E-2
2.799985430E0,-1.211702544E-2,6.790860556E-3,-8.521864191E-3,1.629601982E-2
2.802496628E0,-7.856093347E-3,3.595161485E-3,-7.456631400E-3,1.141248179E-2
2.805007774E0,-1.105179265E-2,4.660394508E-3,-8.521864191E-3,1.471338055E-2
2.807518920E0,-4.660394508E-3,7.856093347E-3,-7.456631400E-3,1.179147283E-2
2.810030014E0,-5.725627299E-3,2.529928461E-3,-6.391398143E-3,8.946134149E-3
2.812541211E0,-8.921326138E-3,4.660394508E-3,-4.260932095E-3,1.092999906E-2
2.815052357E0,-6.790860556E-3,4.660394508E-3,-7.456631400E-3,1.111019423E-2
2.817563451E0,-3.595161485E-3,3.994623839E-4,-7.456631400E-3,8.287708255E-3
2.820076524E0,-1.464695437E-3,4.660394508E-3,-8.521864191E-3,9.822768397E-3
2.822587670E0,-2.529928461E-3,3.595161485E-3,-6.391398143E-3,7.757299423E-3
2.825098816E0,-1.464695437E-3,5.725627299E-3,-5.326164886E-3,7.955889208E-3
2.827609961E0,-3.595161485E-3,4.660394508E-3,-2.130466048E-3,6.259660426E-3
2.830121055E0,-1.464695437E-3,3.595161485E-3,-1.065233024E-3,4.025573278E-3
2.832632253E0,-3.595161485E-3,5.725627299E-3,-1.065233024E-3,6.844173834E-3
2.835143399E0,-4.660394508E-3,7.856093347E-3,-2.130466048E-3,9.379571698E-3
2.837654545E0,-1.464695437E-3,1.211702544E-2,-3.195699072E-3,1.261666084E-2
2.840165639E0,-4.660394508E-3,1.211702544E-2,0.000000000E0,1.298235659E-2
2.842676836E0,-3.595161485E-3,1.637795754E-2,3.195699072E-3,1.706971505E-2
2.845187982E0,-4.660394508E-3,1.850842312E-2,2.130466048E-3,1.920468404E-2
2.847699076E0,-6.790860556E-3,1.957365684E-2,0.000000000E0,2.071820043E-2
2.850206732E0,-6.790860556E-3,1.211702544E-2,2.130466048E-3,1.405265022E-2
2.852717878E0,-1.464695437E-3,1.424749196E-2,1.065233024E-3,1.436214055E-2
2.855229024E0,-4.660394508E-3,1.318225823E-2,0.000000000E0,1.398181709E-2
2.857740170E0,-7.856093347E-3,1.318225823E-2,1.065233024E-3,1.538261539E-2
2.860251316E0,-9.986559860E-3,1.318225823E-2,-2.130466048E-3,1.667459731E-2
2.862762461E0,-9.986559860E-3,1.318225823E-2,1.065233024E-3,1.657220659E-2
2.865273607E0,-9.986559860E-3,2.063889056E-2,2.130466048E-3,2.302681192E-2
2.867784753E0,-7.856093347E-3,2.383458801E-2,1.065233024E-3,2.511852921E-2
2.870295847E0,-9.986559860E-3,1.850842312E-2,0.000000000E0,2.103076566E-2
2.872807045E0,-1.211702544E-2,1.957365684E-2,0.000000000E0,2.302065046E-2
2.875318191E0,-6.790860556E-3,2.063889056E-2,-1.065233024E-3,2.175348966E-2
2.877829284E0,-1.105179265E-2,2.063889056E-2,2.130466048E-3,2.350839871E-2
2.880348503E0,-1.318225823E-2,1.850842312E-2,3.195699072E-3,2.294659345E-2
2.882859649E0,-1.211702544E-2,1.957365684E-2,1.065233024E-3,2.304528301E-2
2.885370795E0,-1.105179265E-2,2.063889056E-2,-1.065233024E-3,2.343588372E-2
2.887881941E0,-1.318225823E-2,2.063889056E-2,1.065233024E-3,2.451265912E-2
2.890393086E0,-1.211702544E-2,1.424749196E-2,1.065233024E-3,1.873360761E-2
2.892904232E0,-2.529928461E-3,1.318225823E-2,-6.391398143E-3,1.486682348E-2
2.895415378E0,-9.986559860E-3,1.211702544E-2,-2.130466048E-3,1.584590070E-2
2.897926472E0,-1.211702544E-2,1.424749196E-2,-1.065233024E-3,1.873360761E-2
2.900437670E0,-1.105179265E-2,1.744319126E-2,-3.195699072E-3,2.089544292E-2
2.902948764E0,-1.424749196E-2,1.637795754E-2,-6.391398143E-3,2.262915134E-2
2.905459961E0,-1.318225823E-2,1.637795754E-2,-6.391398143E-3,2.197406188E-2
2.907971055E0,-1.531272475E-2,1.318225823E-2,-1.065232977E-2,2.284126969E-2
2.910469128E0,-1.318225823E-2,6.790860556E-3,-9.587096982E-3,1.765786362E-2
2.912980274E0,-1.318225823E-2,5.725627299E-3,-7.456631400E-3,1.619123503E-2
2.915491420E0,-1.531272475E-2,1.464695437E-3,-1.065232977E-2,1.871087923E-2
2.918002566E0,-1.211702544E-2,2.529928461E-3,-7.456631400E-3,1.445075069E-2
2.920513711E0,-1.744319126E-2,1.464695437E-3,-1.065232977E-2,2.049103179E-2
2.923024857E0,-1.424749196E-2,-1.731003635E-3,-1.065232977E-2,1.787343085E-2
2.925536003E0,-1.531272475E-2,1.464695437E-3,-8.521864191E-3,1.758542127E-2
2.928047149E0,-1.637795754E-2,1.464695437E-3,-1.171756350E-2,2.019118917E-2
2.930558295E0,-1.850842312E-2,-1.731003635E-3,-1.278279629E-2,2.256009709E-2
2.933069441E0,-1.637795754E-2,2.529928461E-3,-1.065232977E-2,1.970051169E-2
2.935580586E0,-1.318225823E-2,1.464695437E-3,-1.171756350E-2,1.769798178E-2
2.938091680E0,-1.850842312E-2,1.464695437E-3,-1.597849466E-2,2.449529242E-2
2.940611836E0,-1.637795754E-2,3.994623839E-4,-1.278279629E-2,2.077972435E-2
2.943122982E0,-1.850842312E-2,-2.796236658E-3,-1.278279629E-2,2.266672775E-2
2.945634128E0,-1.850842312E-2,8.921326138E-3,-1.171756350E-2,2.365276053E-2
2.948145274E0,-1.850842312E-2,8.921326138E-3,-1.171756350E-2,2.365276053E-2
2.950656420E0,-2.276935615E-2,3.595161485E-3,-1.278279629E-2,2.635846441E-2
2.953167566E0,-2.063889056E-2,6.790860556E-3,-6.391398143E-3,2.264794827E-2
2.955678711E0,-2.276935615E-2,8.921326138E-3,-9.587096982E-3,2.626682447E-2
2.958189857E0,-2.596505545E-2,1.105179265E-2,-1.171756350E-2,3.055531901E-2
2.960701003E0,-2.489982173E-2,1.318225823E-2,-1.171756350E-2,3.051351092E-2
2.963212149E0,-2.276935615E-2,1.424749196E-2,-1.171756350E-2,2.930419596E-2
2.965723295E0,-2.383458801E-2,2.170412242E-2,-7.456631400E-3,3.308712540E-2
2.968234389E0,-2.596505545E-2,2.383458801E-2,-9.587096982E-3,3.652648517E-2
2.970737826E0,-2.796236612E-2,1.957365684E-2,-8.521864191E-3,3.518016672E-2
2.973248972E0,-2.596505545E-2,1.850842312E-2,-9.587096982E-3,3.329652023E-2
2.975760118E0,-2.383458801E-2,2.276935615E-2,-1.171756350E-2,3.498331687E-2
2.978271264E0,-2.383458801E-2,2.383458801E-2,-7.456631400E-3,3.452211643E-2
2.980782409E0,-2.170412242E-2,2.809552103E-2,-9.587096982E-3,3.677417111E-2
2.983293555E0,-2.170412242E-2,2.703028731E-2,-5.326164886E-3,3.507240218E-2
2.985804701E0,-2.276935615E-2,2.809552103E-2,-1.171756350E-2,3.801451270E-2
2.988315795E0,-2.063889056E-2,3.129122034E-2,-9.587096982E-3,3.869130009E-2
2.990826941E0,-1.744319126E-2,2.489982173E-2,-5.326164886E-3,3.086477079E-2
2.993338086E0,-2.063889056E-2,2.170412242E-2,-1.065232977E-2,3.178843915E-2
2.995849232E0,-1.318225823E-2,2.276935615E-2,-1.065232977E-2,2.838463741E-2
2.998360378E0,-1.531272475E-2,2.276935615E-2,-8.521864191E-3,2.873230391E-2
3.000864597E0,-1.318225823E-2,2.489982173E-2,-1.171756350E-2,3.051351092E-2
3.003375743E0,-1.424749196E-2,2.063889056E-2,-1.278279629E-2,2.814879592E-2
3.005886889E0,-1.318225823E-2,2.703028731E-2,-1.065232977E-2,3.190423943E-2
3.008398034E0,-5.725627299E-3,2.809552103E-2,-8.521864191E-3,2.991259399E-2
3.010909180E0,-4.660394508E-3,1.957365684E-2,-1.278279629E-2,2.383793615E-2
3.013420326E0,-7.856093347E-3,2.063889056E-2,-1.171756350E-2,2.499966601E-2
3.015931472E0,-7.856093347E-3,2.276935615E-2,-1.065232977E-2,2.633693057E-2
3.018442566E0,-4.660394508E-3,2.276935615E-2,-8.521864191E-3,2.475449506E-2
3.020953764E0,-1.464695437E-3,2.063889056E-2,-1.171756350E-2,2.377836056E-2
3.023464857E0,-1.464695437E-3,1.744319126E-2,-1.171756350E-2,2.106446174E-2
3.025976055E0,-3.994623839E-4,1.744319126E-2,-8.521864191E-3,1.941768938E-2
3.028487149E0,-2.529928461E-3,1.211702544E-2,-1.065232977E-2,1.633079830E-2
3.031000378E0,-3.994623839E-4,2.529928461E-3,-8.521864191E-3,8.898442420E-3
3.033511524E0,2.796236658E-3,3.994623839E-4,-9.587096982E-3,9.994545422E-3
3.036022670E0,1.731003635E-3,-3.861469682E-3,-1.065232977E-2,1.146208756E-2
3.038533816E0,2.796236658E-3,-5.991935730E-3,-1.065232977E-2,1.253771761E-2
3.041044961E0,2.796236658E-3,-5.991935730E-3,-1.171756350E-2,1.345449841E-2
3.043556107E0,-1.464695437E-3,-9.187635034E-3,-1.065232977E-2,1.414319977E-2
3.046067253E0,-3.994623839E-4,-8.122402243E-3,-1.065232977E-2,1.340168340E-2
3.048578399E0,1.731003635E-3,-5.991935730E-3,-1.171756350E-2,1.327407103E-2
3.051089545E0,1.731003635E-3,-1.131810062E-2,-7.456631400E-3,1.366371571E-2
3.053600691E0,-3.595161485E-3,-1.238333434E-2,-1.278279629E-2,1.815687298E-2
3.056111784E0,-1.464695437E-3,-1.557903271E-2,-1.491326280E-2,2.161612824E-2
3.058622930E0,-3.994623839E-4,-8.122402243E-3,-1.065232977E-2,1.340168340E-2
3.061136003E0,-2.529928461E-3,-7.057168987E-3,-8.521864191E-3,1.135016922E-2
3.063647149E0,-5.725627299E-3,-7.057168987E-3,-9.587096982E-3,1.320980207E-2
3.066158295E0,-4.660394508E-3,2.529928461E-3,-7.456631400E-3,9.149927148E-3
3.068669441E0,-1.105179265E-2,6.790860556E-3,-1.065232977E-2,1.678481568E-2
3.071180586E0,-1.211702544E-2,3.595161485E-3,-1.171756350E-2,1.723510330E-2
3.073691732E0,-1.211702544E-2,8.921326138E-3,-9.587096982E-3,1.784165895E-2
3.076202826E0,-1.105179265E-2,6.790860556E-3,-1.065232977E-2,1.678481568E-2
3.078714024E0,-1.531272475E-2,5.725627299E-3,-1.065232977E-2,1.951241853E-2
3.081225170E0,-1.531272475E-2,8.921326138E-3,-1.065232977E-2,2.067708221E-2
3.083736316E0,-1.744319126E-2,5.725627299E-3,-1.278279629E-2,2.237068640E-2
3.086247461E0,-1.211702544E-2,5.725627299E-3,-1.171756350E-2,1.780186529E-2
3.088758555E0,-1.105179265E-2,-6.657706108E-4,-1.810896210E-2,2.122545358E-2
3.091267201E0,-1.744319126E-2,-9.187635034E-3,-1.491326280E-2,2.472009236E-2
3.093778347E0,-1.318225823E-2,-7.057168987E-3,-1.171756350E-2,1.899675921E-2
3.096289493E0,-1.105179265E-2,-1.131810062E-2,-1.278279629E-2,2.033817601E-2
3.098800639E0,-1.744319126E-2,-9.187635034E-3,-1.597849466E-2,2.537695511E-2
3.101311784E0,-1.744319126E-2,-9.187635034E-3,-1.384802908E-2,2.409243591E-2
3.103822930E0,-1.531272475E-2,-9.187635034E-3,-1.491326280E-2,2.326580289E-2
3.106334076E0,-1.318225823E-2,-3.861469682E-3,-1.491326280E-2,2.027531227E-2
3.108845222E0,-1.211702544E-2,-2.796236658E-3,-1.491326280E-2,1.941768916E-2
3.111356368E0,-1.105179265E-2,-7.057168987E-3,-1.810896210E-2,2.235800222E-2
3.113867514E0,-1.211702544E-2,-2.796236658E-3,-1.597849466E-2,2.024730937E-2
3.116378659E0,-9.986559860E-3,-6.657706108E-4,-1.597849466E-2,1.885436077E-2
3.118889753E0,-7.856093347E-3,1.464695437E-3,-1.704372838E-2,1.882424534E-2
3.121405639E0,-1.318225823E-2,2.529928461E-3,-2.130465955E-2,2.518056768E-2
3.123916784E0,-1.424749196E-2,2.529928461E-3,-1.810896210E-2,2.318029494E-2
3.126427930E0,-1.318225823E-2,8.921326138E-3,-2.130465955E-2,2.659418189E-2
3.128939076E0,-9.986559860E-3,1.211702544E-2,-1.704372838E-2,2.317417443E-2
3.131450222E0,-1.531272475E-2,9.986559860E-3,-1.917419396E-2,2.649265240E-2
3.133961368E0,-1.318225823E-2,1.318225823E-2,-2.450035885E-2,3.078654654E-2
3.136472514E0,-1.318225823E-2,1.211702544E-2,-2.236989327E-2,2.865320859E-2
3.138983659E0,-1.424749196E-2,1.318225823E-2,-1.704372838E-2,2.583121438E-2
3.141494805E0,-1.105179265E-2,1.105179265E-2,-1.704372838E-2,2.312515770E-2
3.144005951E0,-1.211702544E-2,7.856093347E-3,-2.450035885E-2,2.843955154E-2
3.146517097E0,-1.211702544E-2,1.744319126E-2,-1.917419396E-2,2.861357966E-2
3.149028191E0,-1.105179265E-2,1.424749196E-2,-2.130465955E-2,2.791095961E-2
3.151534701E0,-1.637795754E-2,2.529928461E-3,-2.343512699E-2,2.870266901E-2
3.154045847E0,-1.957365684E-2,4.660394508E-3,-2.450035885E-2,3.170354717E-2
3.156556993E0,-2.063889056E-2,3.994623839E-4,-2.556559257E-2,3.285913720E-2
3.159068139E0,-1.744319126E-2,-6.657706108E-4,-2.556559257E-2,3.095654528E-2
3.161579284E0,-2.063889056E-2,-1.731003635E-3,-2.663082629E-2,3.373664308E-2
3.164090430E0,-2.170412242E-2,2.529928461E-3,-2.663082629E-2,3.444808235E-2
3.166601576E0,-2.276935615E-2,1.105179265E-2,-2.556559257E-2,3.597478594E-2
3.169112722E0,-2.276935615E-2,5.725627299E-3,-2.769605815E-2,3.630837403E-2
3.171623868E0,-2.063889056E-2,-1.731003635E-3,-2.769605815E-2,3.458369290E-2
3.174135014E0,-1.957365684E-2,-6.657706108E-4,-3.089175746E-2,3.657693223E-2
3.176646159E0,-1.957365684E-2,2.529928461E-3,-3.089175746E-2,3.665827682E-2
3.179157253E0,-1.637795754E-2,1.464695437E-3,-3.302222490E-2,3.688970267E-2
3.181675222E0,-1.850842312E-2,-3.861469682E-3,-4.047885537E-2,4.467673227E-2
3.184186368E0,-1.957365684E-2,-5.991935730E-3,-3.834838793E-2,4.346987684E-2
3.186697514E0,-2.170412242E-2,-1.731003635E-3,-3.728315607E-2,4.317521314E-2
3.189208659E0,-1.531272475E-2,2.529928461E-3,-3.728315607E-2,4.038457383E-2
3.191719805E0,-1.318225823E-2,-1.731003635E-3,-3.728315607E-2,3.958285023E-2
3.194230899E0,-1.211702544E-2,-2.796236658E-3,-3.621792421E-2,3.829333204E-2
3.196742045E0,-1.318225823E-2,-6.657706108E-4,-4.047885537E-2,4.257643615E-2
3.199253191E0,-1.318225823E-2,-6.657706108E-4,-4.580501840E-2,4.766880419E-2
3.201764336E0,-8.921326138E-3,-1.731003635E-3,-4.154408723E-2,4.252643434E-2
3.204275430E0,-5.725627299E-3,-6.657706108E-4,-4.047885537E-2,4.088720815E-2
3.206786628E0,-4.660394508E-3,8.921326138E-3,-4.260931909E-2,4.378199870E-2
3.209297722E0,-2.529928461E-3,1.318225823E-2,-4.047885537E-2,4.264633867E-2
3.211802514E0,-3.595161485E-3,4.660394508E-3,-4.260931909E-2,4.301393421E-2
3.214313659E0,-3.994623839E-4,3.994623839E-4,-4.367455468E-2,4.367820814E-2
3.216824805E0,7.057168987E-3,-3.861469682E-3,-4.260931909E-2,4.336206471E-2
3.219335951E0,9.187635034E-3,-3.861469682E-3,-4.367455468E-2,4.479721321E-2
3.221847097E0,4.926702939E-3,2.529928461E-3,-3.941362351E-2,3.980083741E-2
3.224358191E0,5.991935730E-3,-6.657706108E-4,-4.154408723E-2,4.197925354E-2
3.226869336E0,4.926702939E-3,4.660394508E-3,-4.154408723E-2,4.209397656E-2
3.229380482E0,5.991935730E-3,8.921326138E-3,-4.580501840E-2,4.704883701E-2
3.231891628E0,3.861469682E-3,4.660394508E-3,-4.260931909E-2,4.303701080E-2
3.234402722E0,4.926702939E-3,1.105179265E-2,-4.047885537E-2,4.224869530E-2
3.236913868E0,4.926702939E-3,1.531272475E-2,-4.367455468E-2,4.654265428E-2
3.239425014E0,8.122402243E-3,1.637795754E-2,-4.260931909E-2,4.636555817E-2
3.241934441E0,7.057168987E-3,2.063889056E-2,-3.834838793E-2,4.411764153E-2
3.244445586E0,1.731003635E-3,2.383458801E-2,-3.621792421E-2,4.339149678E-2
3.246956732E0,5.991935730E-3,2.596505545E-2,-3.621792421E-2,4.496471319E-2
3.249467826E0,5.991935730E-3,2.063889056E-2,-3.941362351E-2,4.489210193E-2
3.251978972E0,1.731003635E-3,7.856093347E-3,-3.515268862E-2,3.606142113E-2
3.254490118E0,-3.994623839E-4,6.790860556E-3,-3.408745676E-2,3.475960394E-2
3.257001264E0,-1.464695437E-3,-6.657706108E-4,-3.408745676E-2,3.412540537E-2
3.259512409E0,-3.595161485E-3,-5.991935730E-3,-3.408745676E-2,3.479630998E-2
3.262023555E0,-3.595161485E-3,-8.122402243E-3,-2.876129188E-2,3.010166963E-2
3.264534701E0,-4.660394508E-3,-1.664426550E-2,-2.876129188E-2,3.355536859E-2
3.267045847E0,-5.725627299E-3,-1.451379992E-2,-3.089175746E-2,3.460829200E-2
3.269556941E0,-2.529928461E-3,-1.238333434E-2,-2.769605815E-2,3.044370452E-2
3.272066003E0,-6.790860556E-3,-2.090519853E-2,-2.663082629E-2,3.453033481E-2
3.274577097E0,-9.986559860E-3,-2.503297664E-2,-2.450035885E-2,3.642319153E-2
3.277088295E0,-1.637795754E-2,-2.090519853E-2,-2.663082629E-2,3.760938351E-2
3.279599389E0,-1.531272475E-2,-1.983996481E-2,-2.769605815E-2,3.735204653E-2
3.282110586E0,-2.063889056E-2,-1.983996481E-2,-2.450035885E-2,3.768097121E-2
3.284621680E0,-1.850842312E-2,-1.877473295E-2,-2.343512699E-2,3.527403437E-2
3.287132826E0,-1.744319126E-2,-9.187635034E-3,-2.236989327E-2,2.981760694E-2
3.289643920E0,-1.957365684E-2,-3.861469682E-3,-2.236989327E-2,2.997417414E-2
3.292155118E0,-2.489982173E-2,-5.991935730E-3,-2.023942769E-2,3.264259256E-2
3.294666211E0,-2.276935615E-2,2.529928461E-3,-1.704372838E-2,2.855403289E-2
3.297177357E0,-2.170412242E-2,7.856093347E-3,-1.917419396E-2,3.000727990E-2
3.299688503E0,-2.689713426E-2,7.856093347E-3,-2.023942769E-2,3.456600161E-2
3.302199076E0,-2.796236612E-2,1.211702544E-2,-1.810896210E-2,3.544926985E-2
3.304710170E0,-2.902759984E-2,1.211702544E-2,-1.704372838E-2,3.577586526E-2
3.307221368E0,-2.902759984E-2,1.318225823E-2,-1.810896210E-2,3.666480592E-2
3.309732461E0,-2.902759984E-2,1.637795754E-2,-1.491326280E-2,3.651362010E-2
3.312243659E0,-2.902759984E-2,1.211702544E-2,-1.384802908E-2,3.436847054E-2
3.314754753E0,-3.009283356E-2,1.105179265E-2,-1.384802908E-2,3.492117784E-2
3.317265899E0,-2.902759984E-2,1.211702544E-2,-1.278279629E-2,3.395325815E-2
3.319776993E0,-2.796236612E-2,8.921326138E-3,-1.491326280E-2,3.292247540E-2
3.322288191E0,-2.489982173E-2,9.986559860E-3,-1.384802908E-2,3.019106506E-2
3.324799336E0,-2.383458801E-2,6.790860556E-3,-1.491326280E-2,2.892419022E-2
3.327310482E0,-2.170412242E-2,6.790860556E-3,-1.278279629E-2,2.608801637E-2
3.329821576E0,-1.957365684E-2,5.725627299E-3,-1.171756350E-2,2.352046225E-2
3.332332930E0,-2.170412242E-2,-4.926702939E-3,-6.391398143E-3,2.315580494E-2
3.334844076E0,-1.957365684E-2,-8.122402243E-3,-9.587096982E-3,2.325970526E-2
3.337355222E0,-1.531272475E-2,-1.025286783E-2,-3.195699072E-3,1.870329731E-2
3.339866316E0,-1.424749196E-2,-1.344856713E-2,-6.391398143E-3,2.060837100E-2
3.342377514E0,-6.790860556E-3,-1.131810062E-2,-5.326164886E-3,1.423317326E-2
3.344888607E0,-4.660394508E-3,-1.344856713E-2,-5.326164886E-3,1.519708088E-2
3.347399753E0,-1.464695437E-3,-5.991935730E-3,-4.260932095E-3,7.496943966E-3
3.349910847E0,-1.464695437E-3,3.994623839E-4,-4.260932095E-3,4.523322367E-3
3.352422045E0,-3.994623839E-4,-1.131810062E-2,-2.130466048E-3,1.152379527E-2
3.354933191E0,-3.994623839E-4,-1.025286783E-2,-4.260932095E-3,1.111019402E-2
3.357444336E0,5.991935730E-3,-3.861469682E-3,2.130466048E-3,7.439968245E-3
3.359955430E0,8.122402243E-3,-4.926702939E-3,4.260932095E-3,1.041159749E-2
3.362468659E0,2.796236658E-3,-5.991935730E-3,-1.065233024E-3,6.697533474E-3
3.364979805E0,1.731003635E-3,-4.926702939E-3,-5.326164886E-3,7.459008502E-3
3.367490951E0,5.991935730E-3,6.790860556E-3,0.000000000E0,9.056438642E-3
3.370002045E0,5.991935730E-3,5.725627299E-3,-1.065233024E-3,8.355885540E-3
3.372513243E0,2.796236658E-3,4.660394508E-3,1.065233024E-3,5.538315432E-3
3.375024336E0,5.991935730E-3,4.660394508E-3,-1.065233024E-3,7.665330532E-3
3.377535482E0,7.057168987E-3,7.856093347E-3,-3.195699072E-3,1.103332812E-2
3.380046576E0,7.057168987E-3,5.725627299E-3,0.000000000E0,9.087708296E-3
3.382557774E0,1.025286783E-2,3.595161485E-3,1.065233024E-3,1.091701452E-2
3.385068920E0,9.187635034E-3,1.464695437E-3,0.000000000E0,9.303653597E-3
3.387580014E0,8.122402243E-3,3.595161485E-3,2.130466048E-3,9.134412399E-3
3.390091159E0,8.122402243E-3,4.660394508E-3,-1.065233024E-3,9.424829790E-3
3.392605326E0,3.861469682E-3,-6.657706108E-4,-3.195699072E-3,5.056351567E-3
3.395116472E0,8.122402243E-3,-6.657706108E-4,0.000000000E0,8.149642244E-3
3.397627618E0,1.238333434E-2,-4.926702939E-3,-5.326164886E-3,1.435226127E-2
3.400138711E0,9.187635034E-3,-5.991935730E-3,-7.456631400E-3,1.326338129E-2
3.402649909E0,8.122402243E-3,-4.926702939E-3,-6.391398143E-3,1.144970700E-2
3.405161003E0,9.187635034E-3,-9.187635034E-3,-7.456631400E-3,1.498087537E-2
3.407672149E0,1.025286783E-2,-4.926702939E-3,-8.521864191E-3,1.421322869E-2
3.410183243E0,7.057168987E-3,-4.926702939E-3,-6.391398143E-3,1.072035476E-2
3.412694441E0,1.238333434E-2,-1.238333434E-2,-1.278279629E-2,2.168164707E-2
3.415205586E0,1.025286783E-2,-7.057168987E-3,-8.521864191E-3,1.508466447E-2
3.417716732E0,1.025286783E-2,-7.057168987E-3,-1.278279629E-2,1.784165950E-2
3.420227826E0,7.057168987E-3,-2.796236658E-3,-1.278279629E-2,1.486682395E-2
3.422742826E0,7.057168987E-3,-5.991935730E-3,-1.171756350E-2,1.493345982E-2
3.425253972E0,4.926702939E-3,-3.861469682E-3,-1.491326280E-2,1.617370574E-2
3.427765118E0,6.657706108E-4,2.529928461E-3,-1.810896210E-2,1.829694775E-2
3.430276264E0,2.796236658E-3,3.595161485E-3,-1.704372838E-2,1.764179137E-2
3.432787409E0,-3.595161485E-3,-2.796236658E-3,-1.384802908E-2,1.457779252E-2
3.435298503E0,-3.595161485E-3,-6.657706108E-4,-1.597849466E-2,1.639148340E-2
3.437809649E0,-4.660394508E-3,-1.731003635E-3,-1.491326280E-2,1.572008454E-2
3.440320795E0,-6.790860556E-3,-6.657706108E-4,-1.384802908E-2,1.543784139E-2
3.442831941E0,-1.105179265E-2,-6.657706108E-4,-1.491326280E-2,1.857392739E-2
3.445343086E0,-1.424749196E-2,-4.926702939E-3,-1.597849466E-2,2.196760616E-2
3.447854232E0,-1.211702544E-2,-6.657706108E-4,-1.384802908E-2,1.841286141E-2
3.450365326E0,-1.850842312E-2,3.994623839E-4,-1.704372838E-2,2.516366376E-2
3.452866784E0,-1.744319126E-2,-3.861469682E-3,-1.278279629E-2,2.196760684E-2
3.455377930E0,-1.957365684E-2,-1.731003635E-3,-1.065232977E-2,2.235165643E-2
3.457889076E0,-1.850842312E-2,-3.861469682E-3,-9.587096982E-3,2.119870522E-2
3.460400222E0,-1.744319126E-2,-1.731003635E-3,-1.065232977E-2,2.051178745E-2
3.462911368E0,-2.063889056E-2,-4.926702939E-3,-1.065232977E-2,2.374254273E-2
3.465422461E0,-1.850842312E-2,-3.861469682E-3,-7.456631400E-3,2.032422265E-2
3.467933607E0,-2.170412242E-2,3.595161485E-3,-8.521864191E-3,2.359271679E-2
3.470444753E0,-2.063889056E-2,3.595161485E-3,-8.521864191E-3,2.261661246E-2
3.472955899E0,-1.957365684E-2,-2.796236658E-3,-6.391398143E-3,2.077972454E-2
3.475467045E0,-2.276935615E-2,-3.861469682E-3,-1.278279629E-2,2.639610593E-2
3.477978191E0,-1.637795754E-2,-2.796236658E-3,-8.521864191E-3,1.867293769E-2
3.480489284E0,-1.957365684E-2,-5.991935730E-3,-7.456631400E-3,2.178606637E-2
3.483000691E0,-1.850842312E-2,-9.187635034E-3,-7.456631400E-3,2.196760605E-2
3.485511836E0,-1.744319126E-2,-8.122402243E-3,-6.391398143E-3,2.027531282E-2
3.488022982E0,-1.744319126E-2,-5.991935730E-3,-6.391398143E-3,1.951968712E-2
3.490534128E0,-1.637795754E-2,-5.991935730E-3,-6.391398143E-3,1.857392681E-2
3.493045222E0,-1.637795754E-2,-1.131810062E-2,-9.587096982E-3,2.209636448E-2
3.495556368E0,-1.637795754E-2,-1.131810062E-2,-8.521864191E-3,2.165546268E-2
3.498067514E0,-1.637795754E-2,-9.187635034E-3,-7.456631400E-3,2.020523404E-2
3.500578659E0,-1.424749196E-2,-2.796236658E-3,-7.456631400E-3,1.632211133E-2
3.503089805E0,-1.637795754E-2,-1.731003635E-3,-5.326164886E-3,1.730901208E-2
3.505600951E0,-1.105179265E-2,-5.991935730E-3,-7.456631400E-3,1.461666058E-2
3.508112045E0,-6.790860556E-3,3.595161485E-3,-8.521864191E-3,1.147445609E-2
3.510623191E0,-9.986559860E-3,5.725627299E-3,-9.587096982E-3,1.498087495E-2
3.513133920E0,-3.595161485E-3,2.529928461E-3,-8.521864191E-3,9.588946418E-3
3.515645066E0,-5.725627299E-3,5.725627299E-3,-7.456631400E-3,1.100758683E-2
3.518156211E0,-4.660394508E-3,7.856093347E-3,-7.456631400E-3,1.179147283E-2
3.520667357E0,-1.464695437E-3,6.790860556E-3,-1.278279629E-2,1.454857384E-2
3.523178451E0,-3.994623839E-4,6.790860556E-3,-1.171756350E-2,1.354904615E-2
3.525689597E0,-1.464695437E-3,8.921326138E-3,-1.491326280E-2,1.743963303E-2
3.528200743E0,-2.529928461E-3,1.424749196E-2,-1.278279629E-2,1.930780790E-2
3.530711889E0,5.991935730E-3,1.211702544E-2,-1.171756350E-2,1.788929550E-2
3.533223034E0,4.926702939E-3,5.725627299E-3,-1.278279629E-2,1.484773015E-2
3.535734180E0,3.861469682E-3,7.856093347E-3,-1.597849466E-2,1.821926020E-2
3.538245274E0,5.991935730E-3,9.986559860E-3,-1.597849466E-2,1.977237879E-2
3.540756420E0,8.122402243E-3,5.725627299E-3,-1.597849466E-2,1.881670847E-2
3.543267566E0,1.238333434E-2,3.595161485E-3,-1.278279629E-2,1.815687298E-2
3.545778711E0,9.187635034E-3,2.529928461E-3,-1.704372838E-2,1.952695196E-2
3.548289857E0,7.057168987E-3,8.921326138E-3,-1.810896210E-2,2.138523328E-2
3.550801003E0,4.926702939E-3,7.856093347E-3,-2.130465955E-2,2.323529907E-2
3.553312097E0,2.796236658E-3,3.595161485E-3,-2.450035885E-2,2.492010653E-2
3.555823243E0,1.731003635E-3,3.595161485E-3,-2.023942769E-2,2.062900853E-2
3.558334389E0,2.796236658E-3,3.994623839E-4,-2.450035885E-2,2.466264571E-2
3.560845534E0,-3.994623839E-4,3.994623839E-4,-2.663082629E-2,2.663681756E-2
3.563356680E0,-4.660394508E-3,-6.657706108E-4,-2.769605815E-2,2.809331174E-2
3.565867826E0,-9.986559860E-3,-1.731003635E-3,-3.408745676E-2,3.556237422E-2
3.568378920E0,-1.318225823E-2,2.529928461E-3,-3.621792421E-2,3.862525733E-2
3.570890066E0,-1.744319126E-2,-2.796236658E-3,-3.834838793E-2,4.222182750E-2
3.573400899E0,-2.063889056E-2,-1.238333434E-2,-4.047885537E-2,4.709403896E-2
3.575912045E0,-2.596505545E-2,-1.451379992E-2,-4.260931909E-2,5.196526307E-2
3.578423191E0,-2.596505545E-2,-1.877473295E-2,-4.367455468E-2,5.416771573E-2
3.580934336E0,-3.222329915E-2,-2.090519853E-2,-4.687025398E-2,6.059858944E-2
3.583445430E0,-3.648423031E-2,-2.290250920E-2,-5.645735189E-2,7.101448142E-2
3.585956576E0,-3.861469775E-2,-2.716344222E-2,-5.858781561E-2,7.524280440E-2
3.588467722E0,-4.287562892E-2,-1.983996481E-2,-6.178351492E-2,7.777625907E-2
3.590978868E0,-4.820179567E-2,-1.983996481E-2,-6.817491353E-2,8.581874005E-2
3.593490014E0,-5.033225939E-2,-2.929390781E-2,-7.030537724E-2,9.129247197E-2
3.596001159E0,-5.352795869E-2,-3.035914153E-2,-7.243584841E-2,9.504668312E-2
3.598512305E0,-5.672365800E-2,-3.781577200E-2,-7.456631213E-2,1.010333652E-1
3.601023399E0,-5.672365800E-2,-4.846810177E-2,-7.030537724E-2,1.025162247E-1
3.603536836E0,-5.778888986E-2,-6.018566713E-2,-7.137060910E-2,1.097981519E-1
3.606047982E0,-6.204982474E-2,-6.231613085E-2,-7.243584841E-2,1.139317034E-1
3.608559128E0,-5.991935730E-2,-5.485950038E-2,-7.456631213E-2,1.102725218E-1
3.611070222E0,-6.311506033E-2,-5.059856921E-2,-7.776200771E-2,1.122080919E-1
3.613581368E0,-6.098458916E-2,-4.953333735E-2,-8.202294260E-2,1.135800807E-1
3.616092514E0,-6.098458916E-2,-4.420717061E-2,-8.308817446E-2,1.121473976E-1
3.618603659E0,-6.098458916E-2,-4.101147130E-2,-8.521863818E-2,1.125312276E-1
3.621114805E0,-5.991935730E-2,-3.675054014E-2,-8.841434121E-2,1.129514378E-1
3.623625951E0,-6.098458916E-2,-3.248960897E-2,-8.841434121E-2,1.122131478E-1
3.626137097E0,-5.565842614E-2,-3.142437339E-2,-8.521863818E-2,1.065249639E-1
3.628648243E0,-5.033225939E-2,-2.090519853E-2,-8.841434121E-2,1.038626949E-1
3.631159336E0,-4.713656008E-2,-1.877473295E-2,-8.628387749E-2,1.000962208E-1
3.633675118E0,-4.500609636E-2,-2.396774292E-2,-8.628387749E-2,1.002242931E-1
3.636186264E0,-4.181039706E-2,-2.090519853E-2,-8.521863818E-2,9.719749442E-2
3.638697409E0,-3.648423031E-2,-1.770949923E-2,-8.415340632E-2,9.341585101E-2
3.641208555E0,-3.222329915E-2,-1.344856713E-2,-8.308817446E-2,9.012685339E-2
3.643719701E0,-3.009283356E-2,-1.238333434E-2,-8.095771074E-2,8.725294568E-2
3.646230795E0,-2.489982173E-2,-1.238333434E-2,-8.415340632E-2,8.862924961E-2
3.648741941E0,-2.276935615E-2,-1.025286783E-2,-9.054480493E-2,9.392511154E-2
3.651253086E0,-2.170412242E-2,-1.344856713E-2,-8.841434121E-2,9.202732540E-2
3.653764232E0,-2.170412242E-2,-2.716344222E-2,-8.521863818E-2,9.203878431E-2
3.656275378E0,-1.105179265E-2,-2.822867595E-2,-8.628387749E-2,9.145440275E-2
3.658786524E0,-7.856093347E-3,-3.994623944E-2,-8.521863818E-2,9.444382744E-2
3.661297618E0,-1.105179265E-2,-5.059856921E-2,-8.521863818E-2,9.972248303E-2
3.663803139E0,-6.790860556E-3,-5.272903293E-2,-8.628387749E-2,1.013477884E-1
3.666314284E0,-4.660394508E-3,-5.912043154E-2,-9.374050796E-2,1.109244226E-1
3.668825430E0,-1.105179265E-2,-6.338136643E-2,-9.587097168E-2,1.154581437E-1
3.671336576E0,-1.637795754E-2,-6.338136643E-2,-9.693620354E-2,1.169703495E-1
3.673847670E0,-2.170412242E-2,-6.870753318E-2,-9.800143540E-2,1.216391195E-1
3.676358816E0,-2.170412242E-2,-6.551183015E-2,-9.800143540E-2,1.198630475E-1
3.678869961E0,-2.276935615E-2,-6.231613085E-2,-1.001319066E-1,1.201172030E-1
3.681381107E0,-2.383458801E-2,-5.912043154E-2,-1.022623703E-1,1.205027194E-1
3.683892253E0,-3.009283356E-2,-5.379426852E-2,-1.001319066E-1,1.175831649E-1
3.686403399E0,-3.115806542E-2,-4.953333735E-2,-1.054580659E-1,1.206058879E-1
3.688914493E0,-3.328853101E-2,-3.888100386E-2,-1.097190008E-1,1.210707144E-1
3.691425639E0,-4.074516147E-2,-3.994623944E-2,-1.065233052E-1,1.208432240E-1
3.693936264E0,-4.394086078E-2,-4.314193875E-2,-1.097190008E-1,1.258184615E-1
3.696447409E0,-4.820179567E-2,-3.994623944E-2,-1.150451675E-1,1.309752103E-1
3.698958503E0,-5.565842614E-2,-3.675054014E-2,-1.161103994E-1,1.339032764E-1
3.701469649E0,-6.098458916E-2,-3.355484083E-2,-1.171756312E-1,1.362907774E-1
3.703980743E0,-6.631075591E-2,-3.142437339E-2,-1.161103994E-1,1.373544045E-1
3.706491889E0,-7.270215452E-2,-3.142437339E-2,-1.193061024E-1,1.432027953E-1
3.709003034E0,-7.270215452E-2,-2.090519853E-2,-1.171756312E-1,1.394731485E-1
3.711514180E0,-7.270215452E-2,-2.090519853E-2,-1.246322617E-1,1.457937970E-1
3.714025274E0,-7.802832127E-2,-3.142437339E-2,-1.256974936E-1,1.512473803E-1
3.716536420E0,-7.589785010E-2,-3.142437339E-2,-1.267627329E-1,1.510521941E-1
3.719047514E0,-7.376738638E-2,-3.248960897E-2,-1.299584359E-1,1.529261163E-1
3.721558659E0,-6.844121963E-2,-3.355484083E-2,-1.299584359E-1,1.506629448E-1
3.724068764E0,-6.737598777E-2,-3.355484083E-2,-1.288931966E-1,1.492612046E-1
3.726579909E0,-6.418029219E-2,-3.142437339E-2,-1.267627329E-1,1.455176676E-1
3.729091003E0,-6.418029219E-2,-2.197043039E-2,-1.299584359E-1,1.465981063E-1
3.731602149E0,-6.204982474E-2,-2.090519853E-2,-1.278279573E-1,1.436217071E-1
3.734113243E0,-5.885412544E-2,-1.877473295E-2,-1.299584359E-1,1.438940365E-1
3.736624389E0,-6.098458916E-2,-1.238333434E-2,-1.342193633E-1,1.479435858E-1
3.739135534E0,-5.352795869E-2,-9.187635034E-3,-1.278279573E-1,1.388871544E-1
3.741646680E0,-4.926702753E-2,-2.796236658E-3,-1.310236603E-1,1.400080658E-1
3.744157774E0,-4.500609636E-2,-6.657706108E-4,-1.278279573E-1,1.355211372E-1
3.746668920E0,-3.435376659E-2,3.994623839E-4,-1.288931966E-1,1.333933918E-1
3.749180014E0,-2.170412242E-2,5.725627299E-3,-1.278279573E-1,1.297838141E-1
3.751691159E0,-2.276935615E-2,1.464695437E-3,-1.288931966E-1,1.308970780E-1
3.754205482E0,-1.850842312E-2,-1.731003635E-3,-1.235670298E-1,1.249574686E-1
3.756716628E0,-9.986559860E-3,3.595161485E-3,-1.256974936E-1,1.261448233E-1
3.759227722E0,-3.595161485E-3,1.105179265E-2,-1.267627329E-1,1.272943744E-1
3.761738868E0,1.731003635E-3,1.318225823E-2,-1.246322617E-1,1.253394150E-1
3.764250014E0,8.122402243E-3,1.850842312E-2,-1.256974936E-1,1.273121951E-1
3.766761107E0,1.557903271E-2,2.383458801E-2,-1.235670298E-1,1.268053812E-1
3.769272253E0,1.770949923E-2,3.768261895E-2,-1.256974936E-1,1.324139948E-1
3.771783399E0,2.516612969E-2,5.046541616E-2,-1.278279573E-1,1.397142762E-1
3.774294493E0,2.516612969E-2,5.472634733E-2,-1.320888996E-1,1.451750136E-1
3.776805639E0,3.049229458E-2,6.111774594E-2,-1.288931966E-1,1.458719131E-1
3.779316784E0,3.368799388E-2,6.431344151E-2,-1.342193633E-1,1.525973040E-1
3.781827878E0,2.942706272E-2,6.750914454E-2,-1.342193633E-1,1.530956371E-1
3.784336941E0,3.475322574E-2,6.431344151E-2,-1.299584359E-1,1.491080163E-1
3.786848034E0,3.688369319E-2,5.259587988E-2,-1.320888996E-1,1.468816217E-1
3.789359180E0,3.475322574E-2,5.153064802E-2,-1.374150664E-1,1.508180853E-1
3.791870326E0,3.794892505E-2,4.194355011E-2,-1.352845877E-1,1.466332227E-1
3.794381420E0,4.007939249E-2,2.703028731E-2,-1.384802908E-1,1.466757821E-1
3.796892566E0,4.007939249E-2,1.531272475E-2,-1.395455301E-1,1.459924389E-1
3.799403711E0,3.688369319E-2,3.595161485E-3,-1.459369212E-1,1.505686454E-1
3.801914857E0,3.794892505E-2,-9.187635034E-3,-1.459369212E-1,1.510699127E-1
3.804425951E0,4.220985994E-2,-2.396774292E-2,-1.501978636E-1,1.578465179E-1
3.806937097E0,3.901416063E-2,-4.420717061E-2,-1.565892547E-1,1.673217660E-1
3.809448191E0,3.262276202E-2,-5.698996782E-2,-1.608501822E-1,1.737379698E-1
3.811959336E0,2.942706272E-2,-6.657706201E-2,-1.661763489E-1,1.814195032E-1
3.814471368E0,2.623136342E-2,-9.107742459E-2,-1.715025157E-1,1.959497246E-1
3.816982514E0,1.877473295E-2,-9.959928691E-2,-1.789591461E-1,2.056669262E-1
3.819493607E0,1.557903271E-2,-1.081211492E-1,-1.874810159E-1,2.169839176E-1
3.822004753E0,3.861469682E-3,-1.209039465E-1,-1.885462403E-1,2.240141959E-1
3.824515899E0,6.657706108E-4,-1.251648813E-1,-1.981333494E-1,2.343576645E-1
3.827026993E0,-6.790860556E-3,-1.219691783E-1,-2.087856680E-1,2.418967784E-1
3.829538139E0,-1.850842312E-2,-1.187734827E-1,-2.130466104E-1,2.446192145E-1
3.832049284E0,-2.796236612E-2,-1.187734827E-1,-2.214353085E-1,2.528292506E-1
3.834560378E0,-3.967992961E-2,-1.262301207E-1,-2.256962508E-1,2.616244213E-1
3.837071524E0,-4.713656008E-2,-1.198387146E-1,-2.320876420E-1,2.654201318E-1
3.839582670E0,-5.885412544E-2,-1.155777797E-1,-2.427399755E-1,2.752175992E-1
3.842093764E0,-7.057169080E-2,-1.134473160E-1,-2.533923090E-1,2.864582331E-1
3.844607878E0,-7.696308941E-2,-1.059906855E-1,-2.608489394E-1,2.918895540E-1
3.847118972E0,-8.335448056E-2,-1.006645188E-1,-2.715012729E-1,3.013208522E-1
3.849630118E0,-8.974587917E-2,-8.255556226E-2,-2.864145339E-1,3.112925134E-1
3.852141264E0,-9.400681406E-2,-7.403369248E-2,-2.928059399E-1,3.163124834E-1
3.854652357E0,-1.046591476E-1,-7.722939551E-2,-3.045234978E-1,3.311381546E-1
3.857163503E0,-1.099853069E-1,-7.083799690E-2,-3.130453527E-1,3.392818627E-1
3.859674649E0,-1.110505462E-1,-6.231613085E-2,-3.194367588E-1,3.438827806E-1
3.862185795E0,-1.110505462E-1,-6.444659829E-2,-3.226324618E-1,3.472424128E-1
3.864696889E0,-1.099853069E-1,-6.018566713E-2,-3.290238380E-1,3.521019288E-1
3.867208034E0,-1.067896113E-1,-5.698996782E-2,-3.396761715E-1,3.605991944E-1
3.869719128E0,-1.057243794E-1,-4.846810177E-2,-3.481980562E-1,3.671085502E-1
3.872230274E0,-1.046591476E-1,-4.101147130E-2,-3.556546867E-1,3.729956221E-1
3.874765274E0,-1.014634445E-1,-3.675054014E-2,-3.652417660E-1,3.808503386E-1
3.877276368E0,-9.294158220E-2,-2.090519853E-2,-3.705679476E-1,3.826170002E-1
3.879787514E0,-8.335448056E-2,-8.122402243E-3,-3.822855055E-1,3.913516968E-1
3.882298659E0,-7.376738638E-2,7.856093347E-3,-3.897421360E-1,3.967395595E-1
3.884809805E0,-6.311506033E-2,1.957365684E-2,-4.003944695E-1,4.058107565E-1
3.887320899E0,-4.926702753E-2,3.129122034E-2,-4.110468030E-1,4.151696698E-1
3.889831993E0,-3.861469775E-2,4.407401755E-2,-4.185034335E-1,4.225857756E-1
3.892343139E0,-2.689713426E-2,4.940018058E-2,-4.248948097E-1,4.286017184E-1
3.894854284E0,-1.850842312E-2,4.833494872E-2,-4.334166944E-1,4.364961168E-1
3.897365430E0,-4.660394508E-3,5.259587988E-2,-4.440690279E-1,4.471972131E-1
3.899876524E0,1.025286783E-2,5.153064802E-2,-4.568518102E-1,4.598631378E-1
3.902387670E0,1.664426550E-2,4.620448127E-2,-4.643084407E-1,4.668985048E-1
3.904883816E0,2.836182900E-2,4.194355011E-2,-4.749607742E-1,4.776519567E-1
3.907394909E0,4.007939249E-2,3.448691964E-2,-4.866783321E-1,4.895421374E-1
3.909906055E0,4.860125855E-2,3.555215150E-2,-4.983958900E-1,5.020204189E-1
3.912417201E0,5.818835273E-2,2.383458801E-2,-5.101134777E-1,5.139744469E-1
3.914928347E0,6.671021879E-2,5.725627299E-3,-5.143743753E-1,5.187138268E-1
3.917439441E0,7.523208112E-2,-5.991935730E-3,-5.282224417E-1,5.335866539E-1
3.919950534E0,7.949301600E-2,-2.197043039E-2,-5.420704484E-1,5.483084993E-1
3.922461732E0,7.629731297E-2,-3.675054014E-2,-5.537880063E-1,5.602258813E-1
3.924972826E0,7.736254483E-2,-5.485950038E-2,-5.601794124E-1,5.681509502E-1
3.927483972E0,7.523208112E-2,-6.977276504E-2,-5.665708184E-1,5.757869372E-1
3.929995066E0,7.097115368E-2,-8.042509109E-2,-5.740274191E-1,5.839628223E-1
3.932506211E0,6.777545065E-2,-9.107742459E-2,-5.857450366E-1,5.966455035E-1
3.935005378E0,6.031882018E-2,-1.070559174E-1,-5.932016373E-1,6.057949422E-1
3.937516524E0,4.753602296E-2,-1.187734827E-1,-6.038539410E-1,6.172571552E-1
3.940027618E0,4.007939249E-2,-1.209039465E-1,-6.123758554E-1,6.254824620E-1
3.942538764E0,2.623136342E-2,-1.230344176E-1,-6.230281591E-1,6.356017931E-1
3.945049909E0,1.557903271E-2,-1.240996495E-1,-6.315500140E-1,6.438158506E-1
3.947561003E0,5.991935730E-3,-1.230344176E-1,-6.390066743E-1,6.507710050E-1
3.950072097E0,-4.660394508E-3,-1.049254537E-1,-6.464632750E-1,6.549395667E-1
3.952583295E0,-1.637795754E-2,-9.427312016E-2,-6.560503840E-1,6.629915272E-1
3.955094389E0,-3.115806542E-2,-9.214265645E-2,-6.667027473E-1,6.737608237E-1
3.957605534E0,-4.394086078E-2,-7.935985923E-2,-6.741593480E-1,6.802349690E-1
3.960116628E0,-4.500609636E-2,-6.444659829E-2,-6.794854999E-1,6.840171469E-1
3.962627774E0,-4.500609636E-2,-5.272903293E-2,-6.837464571E-1,6.872518587E-1
3.965172045E0,-5.033225939E-2,-3.994623944E-2,-6.912030578E-1,6.941834811E-1
3.967683191E0,-6.737598777E-2,-1.131810062E-2,-6.965292692E-1,6.998718783E-1
3.970194284E0,-9.294158220E-2,2.276935615E-2,-6.965292692E-1,7.030715498E-1
3.972705430E0,-1.142462417E-1,3.981308267E-2,-7.050511241E-1,7.153561161E-1
3.975216576E0,-1.291595101E-1,4.194355011E-2,-7.157034278E-1,7.284729487E-1
3.977727670E0,-1.462032348E-1,3.981308267E-2,-7.220948339E-1,7.378220764E-1
3.980238764E0,-1.557903290E-1,3.235645220E-2,-7.231600881E-1,7.404580201E-1
3.982749961E0,-1.589860320E-1,2.276935615E-2,-7.359428406E-1,7.532641413E-1
3.985261055E0,-1.611164957E-1,1.637795754E-2,-7.433995008E-1,7.608347919E-1
3.987772201E0,-1.643121988E-1,5.725627299E-3,-7.423342466E-1,7.603232307E-1
3.990283295E0,-1.579207927E-1,1.105179265E-2,-7.433995008E-1,7.600683764E-1
3.992794441E0,-1.557903290E-1,8.921326138E-3,-7.465952039E-1,7.627284019E-1
3.995274336E0,-1.536598653E-1,1.464695437E-3,-7.508561015E-1,7.664191965E-1
3.997785482E0,-1.493989378E-1,1.464695437E-3,-7.508561015E-1,7.655763013E-1
4.000296576E0,-1.440727711E-1,4.660394508E-3,-7.497909069E-1,7.635215038E-1
4.002807722E0,-1.344856620E-1,1.211702544E-2,-7.508561015E-1,7.629011081E-1
4.005318868E0,-1.259638071E-1,1.318225823E-2,-7.497909069E-1,7.604124254E-1
4.007829961E0,-1.131810099E-1,1.424749196E-2,-7.508561015E-1,7.594720648E-1
4.010341107E0,-1.046591476E-1,1.957365684E-2,-7.519213557E-1,7.594224058E-1
4.012852253E0,-9.507204592E-2,1.424749196E-2,-7.508561015E-1,7.569851849E-1
